t,chair,accX,accY,accZ,gyroX,gyroY,gyroZ,temp,stdX,stdY,stdZ,big,n,touch,tbase,up,seq,flags,rssi,is_occupied,occupied_chairs,n_occupied,block,label,target_chair,is_target,is_transition,phase_idx,t_phase_start
1785362235.177,6,5686,13644,7228,-323,-324,-64,-864,24,14,15,0,100,1996,1979,41,19676,7,-60,0,,0,A,empty,,0,0,0,1785362235.156
1785362235.202,1,5695,14960,88,105,194,-90,-2240,12,12,11,0,100,2162,2128,142,2878,7,-56,0,,0,A,empty,,0,0,0,1785362235.156
1785362235.273,7,1266,263,-16406,246,-158,158,-2032,12,14,14,0,100,2028,2019,19,9361,7,-62,0,,0,A,empty,,0,0,0,1785362235.156
1785362235.273,4,1638,-18,-16272,326,22,230,-1856,11,11,9,0,100,2122,2099,44,21385,7,-66,0,,0,A,empty,,0,0,0,1785362235.156
1785362235.273,3,1884,-69,-17912,-191,206,119,-928,16,15,12,0,100,2031,2013,46,22279,7,-49,0,,0,A,empty,,0,0,0,1785362235.156
1785362235.273,2,488,1380,-16972,-1249,-671,52,-2112,10,12,11,0,100,2057,2034,129,62336,7,-50,0,,0,A,empty,,0,0,0,1785362235.156
1785362235.295,6,5686,13645,7226,-323,-324,-64,-880,24,14,14,0,100,1997,1979,41,19677,7,-60,0,,0,A,empty,,0,0,0,1785362235.156
1785362235.318,1,5698,14963,90,106,194,-89,-2256,11,12,11,0,100,2162,2128,142,2879,7,-55,0,,0,A,empty,,0,0,0,1785362235.156
1785362235.390,7,1273,261,-16413,246,-158,158,-2016,12,13,14,0,100,2027,2019,19,9362,7,-61,0,,0,A,empty,,0,0,0,1785362235.156
1785362235.390,4,1637,-19,-16278,325,22,229,-1840,11,11,9,0,100,2122,2099,44,21386,7,-66,0,,0,A,empty,,0,0,0,1785362235.156
1785362235.390,3,1885,-70,-17919,-191,205,119,-896,16,15,12,0,100,2031,2013,46,22280,7,-50,0,,0,A,empty,,0,0,0,1785362235.156
1785362235.415,2,490,1383,-16973,-1249,-671,52,-2144,10,12,10,0,100,2057,2034,129,62337,7,-49,0,,0,A,empty,,0,0,0,1785362235.156
1785362235.415,5,1823,-787,-15674,76,-12,-122,-1312,9,12,10,0,100,2326,2303,42,20517,7,-66,0,,0,A,empty,,0,0,0,1785362235.156
1785362235.415,6,5683,13645,7232,-323,-325,-63,-880,21,14,14,0,100,1996,1979,41,19678,7,-61,0,,0,A,empty,,0,0,0,1785362235.156
1785362235.440,1,5696,14961,94,107,194,-90,-2256,11,12,11,0,100,2161,2128,142,2880,7,-54,0,,0,A,empty,,0,0,0,1785362235.156
1785362235.511,7,1275,258,-16408,246,-158,157,-2032,12,14,14,0,100,2028,2019,19,9363,7,-62,0,,0,A,empty,,0,0,0,1785362235.156
1785362235.511,4,1637,-15,-16268,324,23,230,-1856,11,11,9,0,100,2121,2099,44,21387,7,-65,0,,0,A,empty,,0,0,0,1785362235.156
1785362235.536,3,1882,-67,-17923,-190,206,118,-928,15,15,12,0,100,2031,2013,46,22281,7,-50,0,,0,A,empty,,0,0,0,1785362235.156
1785362235.536,2,489,1384,-16969,-1249,-671,53,-2112,8,13,10,0,100,2057,2034,129,62338,7,-50,0,,0,A,empty,,0,0,0,1785362235.156
1785362235.536,5,1822,-786,-15667,77,-12,-123,-1312,8,11,11,0,100,2325,2303,42,20518,7,-66,0,,0,A,empty,,0,0,0,1785362235.156
1785362235.560,6,5684,13647,7236,-323,-325,-63,-864,19,14,14,0,100,1996,1979,41,19679,7,-61,0,,0,A,empty,,0,0,0,1785362235.156
1785362235.632,7,1280,260,-16406,245,-159,157,-2000,12,13,14,0,100,2027,2019,19,9364,7,-61,0,,0,A,empty,,0,0,0,1785362235.156
1785362235.632,4,1636,-16,-16271,324,23,231,-1840,11,10,9,0,100,2121,2099,44,21388,7,-64,0,,0,A,empty,,0,0,0,1785362235.156
1785362235.657,3,1886,-69,-17922,-190,206,117,-960,15,14,12,0,100,2030,2013,46,22282,7,-50,0,,0,A,empty,,0,0,0,1785362235.156
1785362235.658,2,490,1385,-16966,-1249,-672,52,-2128,8,12,10,0,100,2056,2034,129,62339,7,-49,0,,0,A,empty,,0,0,0,1785362235.156
1785362235.658,5,1821,-786,-15667,77,-12,-123,-1312,9,11,11,0,100,2327,2303,42,20519,7,-66,0,,0,A,empty,,0,0,0,1785362235.156
1785362235.683,6,5683,13648,7233,-324,-326,-64,-880,21,15,14,0,100,1996,1979,41,19680,7,-61,0,,0,A,empty,,0,0,0,1785362235.156
1785362235.683,1,5694,14961,97,107,196,-91,-2224,11,11,11,0,100,2162,2128,142,2882,7,-53,0,,0,A,empty,,0,0,0,1785362235.156
1785362235.758,7,1283,265,-16395,245,-160,157,-2048,12,13,14,0,100,2027,2019,19,9365,7,-61,0,,0,A,empty,,0,0,0,1785362235.156
1785362235.784,4,1638,-11,-16278,323,24,231,-1840,12,10,9,0,100,2121,2099,44,21389,7,-65,0,,0,A,empty,,0,0,0,1785362235.156
1785362235.784,3,1886,-69,-17920,-191,206,118,-928,14,13,12,0,100,2030,2013,46,22283,7,-50,0,,0,A,empty,,0,0,0,1785362235.156
1785362235.784,2,493,1386,-16960,-1250,-672,53,-2144,8,12,10,0,100,2056,2034,129,62340,7,-50,0,,0,A,empty,,0,0,0,1785362235.156
1785362235.784,5,1823,-785,-15656,78,-12,-124,-1312,9,12,11,0,100,2331,2303,42,20520,7,-65,0,,0,A,empty,,0,0,0,1785362235.156
1785362235.809,6,5687,13647,7235,-322,-327,-63,-864,22,15,15,0,100,1996,1979,41,19681,7,-61,0,,0,A,empty,,0,0,0,1785362235.156
1785362235.877,7,1283,264,-16404,244,-161,157,-2032,12,14,14,0,100,2027,2019,19,9366,7,-61,0,,0,A,empty,,0,0,0,1785362235.156
1785362235.902,4,1631,-9,-16276,324,23,232,-1824,11,10,8,0,100,2122,2099,44,21390,7,-65,0,,0,A,empty,,0,0,0,1785362235.156
1785362235.902,3,1883,-68,-17925,-192,206,119,-912,14,14,12,0,100,2030,2013,46,22284,7,-50,0,,0,A,empty,,0,0,0,1785362235.156
1785362235.902,2,495,1388,-16961,-1250,-672,54,-2128,8,12,11,0,100,2056,2034,129,62341,7,-50,0,,0,A,empty,,0,0,0,1785362235.156
1785362235.927,6,5689,13644,7241,-323,-327,-62,-880,23,15,15,0,100,1996,1979,41,19682,7,-60,0,,0,A,empty,,0,0,0,1785362235.156
1785362235.954,1,5686,14962,100,107,196,-91,-2240,11,11,11,0,100,2159,2128,142,2884,7,-53,0,,0,A,empty,,0,0,0,1785362235.156
1785362236.023,7,1281,263,-16402,244,-160,157,-2016,13,14,14,0,100,2026,2019,19,9367,7,-61,0,,0,A,empty,,0,0,0,1785362235.156
1785362236.023,4,1627,-8,-16284,324,24,233,-1824,12,10,9,0,100,2122,2099,44,21391,7,-65,0,,0,A,empty,,0,0,0,1785362235.156
1785362236.023,3,1885,-71,-17927,-193,206,119,-944,15,13,11,0,100,2031,2013,46,22285,7,-50,0,,0,A,empty,,0,0,0,1785362235.156
1785362236.024,2,497,1388,-16956,-1250,-672,54,-2144,9,12,10,0,100,2056,2034,129,62342,7,-50,0,,0,A,empty,,0,0,0,1785362235.156
1785362236.049,6,5690,13643,7246,-324,-328,-62,-880,25,15,15,0,100,1995,1979,41,19683,7,-61,0,,0,A,empty,,0,0,0,1785362235.156
1785362236.074,1,5689,14962,107,106,196,-92,-2240,12,12,10,0,100,2162,2128,142,2885,7,-54,0,,0,A,empty,,0,0,0,1785362235.156
1785362236.143,7,1282,265,-16401,242,-161,158,-2048,13,14,14,0,100,2028,2019,19,9368,7,-61,0,,0,A,empty,,0,0,0,1785362235.156
1785362236.143,4,1625,-8,-16287,324,23,233,-1840,11,10,9,0,100,2122,2099,44,21392,7,-65,0,,0,A,empty,,0,0,0,1785362235.156
1785362236.144,3,1882,-76,-17924,-192,206,119,-928,13,13,12,0,100,2031,2013,46,22286,7,-50,0,,0,A,empty,,0,0,0,1785362235.156
1785362236.165,5,1822,-788,-15661,77,-12,-124,-1296,9,10,10,0,100,2326,2303,42,20523,7,-66,0,,0,A,empty,,0,0,0,1785362235.156
1785362236.165,6,5689,13641,7251,-322,-328,-62,-896,28,15,14,0,100,1997,1979,41,19684,7,-61,0,,0,A,empty,,0,0,0,1785362235.156
1785362236.190,1,5691,14966,105,105,197,-91,-2256,12,12,10,0,100,2162,2128,142,2886,7,-55,0,,0,A,empty,,0,0,0,1785362235.156
1785362236.260,7,1281,259,-16404,243,-161,157,-2032,14,14,13,0,100,2028,2019,19,9369,7,-61,0,,0,A,empty,,0,0,0,1785362235.156
1785362236.284,3,1885,-74,-17926,-194,206,120,-944,14,14,11,0,100,2030,2013,46,22287,7,-50,0,,0,A,empty,,0,0,0,1785362235.156
1785362236.284,2,493,1388,-16958,-1249,-671,55,-2112,9,12,10,0,100,2057,2034,129,62344,7,-49,0,,0,A,empty,,0,0,0,1785362235.156
1785362236.284,5,1823,-789,-15661,76,-12,-125,-1328,10,10,10,0,100,2327,2303,42,20524,7,-66,0,,0,A,empty,,0,0,0,1785362235.156
1785362236.306,6,5689,13640,7248,-323,-326,-62,-896,29,15,15,0,100,1996,1979,41,19685,7,-61,0,,0,A,empty,,0,0,0,1785362235.156
1785362236.327,1,5688,14968,102,105,196,-91,-2240,12,12,10,0,100,2163,2128,142,2887,7,-55,0,,0,A,empty,,0,0,0,1785362235.156
1785362236.377,7,1276,259,-16396,243,-161,157,-2032,14,15,13,0,100,2028,2019,19,9370,7,-61,0,,0,A,empty,,0,0,0,1785362235.156
1785362236.402,4,1624,-10,-16275,324,23,234,-1824,11,10,10,0,100,2122,2099,44,21394,7,-65,0,,0,A,empty,,0,0,0,1785362235.156
1785362236.402,3,1883,-75,-17928,-193,207,120,-896,14,14,10,0,100,2030,2013,46,22288,7,-50,0,,0,A,empty,,0,0,0,1785362235.156
1785362236.402,2,493,1390,-16956,-1249,-671,55,-2112,9,12,11,0,100,2057,2034,129,62345,7,-50,0,,0,A,empty,,0,0,0,1785362235.156
1785362236.427,6,5691,13638,7246,-324,-326,-63,-880,30,15,16,0,100,1996,1979,41,19686,7,-61,0,,0,A,empty,,0,0,0,1785362235.156
1785362236.447,1,5688,14966,107,105,196,-91,-2240,12,13,10,0,100,2161,2128,142,2888,7,-53,0,,0,A,empty,,0,0,0,1785362235.156
1785362236.523,7,1277,259,-16398,242,-160,158,-2048,14,15,14,0,100,2028,2019,19,9371,7,-61,0,,0,A,empty,,0,0,0,1785362235.156
1785362236.523,4,1627,-10,-16282,325,23,233,-1824,11,11,9,0,100,2122,2099,44,21395,7,-65,0,,0,A,empty,,0,0,0,1785362235.156
1785362236.523,3,1887,-74,-17926,-192,206,120,-928,16,13,9,0,100,2030,2013,46,22289,7,-50,0,,0,A,empty,,0,0,0,1785362235.156
1785362236.523,2,492,1391,-16960,-1249,-670,56,-2112,9,11,11,0,100,2058,2034,129,62346,7,-50,0,,0,A,empty,,0,0,0,1785362235.156
1785362236.549,6,5689,13640,7241,-323,-326,-62,-880,30,15,16,0,100,1997,1979,41,19687,7,-61,0,,0,A,empty,,0,0,0,1785362235.156
1785362236.573,1,5688,14970,106,104,195,-91,-2256,12,13,10,0,100,2162,2128,142,2889,7,-55,0,,0,A,empty,,0,0,0,1785362235.156
1785362236.641,7,1275,260,-16400,244,-160,157,-2000,15,16,14,0,100,2027,2019,19,9372,7,-61,0,,0,A,empty,,0,0,0,1785362235.156
1785362236.641,4,1626,-9,-16278,325,23,232,-1872,11,11,10,0,100,2121,2099,44,21396,7,-66,0,,0,A,empty,,0,0,0,1785362235.156
1785362236.641,3,1887,-78,-17927,-192,205,121,-896,17,13,10,0,100,2030,2013,46,22290,7,-50,0,,0,A,empty,,0,0,0,1785362235.156
1785362236.666,2,493,1389,-16959,-1249,-671,56,-2144,10,11,11,0,100,2057,2034,129,62347,7,-50,0,,0,A,empty,,0,0,0,1785362235.156
1785362236.667,5,1827,-784,-15656,75,-15,-125,-1328,10,12,10,0,100,2328,2303,42,20527,7,-65,0,,0,A,empty,,0,0,0,1785362235.156
1785362236.667,6,5688,13640,7245,-323,-325,-61,-896,30,15,15,0,100,1995,1979,41,19688,7,-61,0,,0,A,empty,,0,0,0,1785362235.156
1785362236.688,1,5694,14966,101,105,195,-91,-2272,12,13,9,0,100,2162,2128,142,2890,7,-54,0,,0,A,empty,,0,0,0,1785362235.156
1785362236.759,7,1275,256,-16397,244,-160,157,-2064,15,16,15,0,100,2027,2019,19,9373,7,-61,0,,0,A,empty,,0,0,0,1785362235.156
1785362236.784,3,1889,-78,-17929,-192,206,120,-928,17,14,10,0,100,2031,2013,46,22291,7,-50,0,,0,A,empty,,0,0,0,1785362235.156
1785362236.784,2,496,1390,-16959,-1248,-669,55,-2128,10,10,11,0,100,2057,2034,129,62348,7,-50,0,,0,A,empty,,0,0,0,1785362235.156
1785362236.784,5,1827,-783,-15658,75,-15,-124,-1296,9,11,10,0,100,2327,2303,42,20528,7,-65,0,,0,A,empty,,0,0,0,1785362235.156
1785362236.807,6,5686,13635,7243,-324,-325,-60,-864,30,14,14,0,100,1995,1979,41,19689,7,-61,0,,0,A,empty,,0,0,0,1785362235.156
1785362236.830,1,5694,14966,102,104,195,-90,-2224,12,13,9,0,100,2162,2128,142,2891,7,-55,0,,0,A,empty,,0,0,0,1785362235.156
1785362236.878,7,1274,260,-16386,244,-159,158,-2016,15,14,15,0,100,2028,2019,19,9374,7,-61,0,,0,A,empty,,0,0,0,1785362235.156
1785362236.903,4,1623,-19,-16283,326,22,232,-1856,11,10,11,0,100,2120,2099,44,21398,7,-67,0,,0,A,empty,,0,0,0,1785362235.156
1785362236.903,3,1892,-79,-17928,-191,206,119,-896,17,14,10,0,100,2031,2013,46,22292,7,-49,0,,0,A,empty,,0,0,0,1785362235.156
1785362236.903,2,495,1391,-16959,-1247,-670,55,-2144,10,11,10,0,100,2057,2034,129,62349,7,-50,0,,0,A,empty,,0,0,0,1785362235.156
1785362236.927,6,5687,13634,7240,-323,-325,-60,-880,31,14,15,0,100,1994,1979,41,19690,7,-61,0,,0,A,empty,,0,0,0,1785362235.156
1785362236.947,1,5694,14968,100,103,194,-90,-2224,12,13,9,0,100,2163,2128,142,2892,7,-54,0,,0,A,empty,,0,0,0,1785362235.156
1785362237.018,7,1275,260,-16386,243,-159,158,-2032,15,15,15,0,100,2027,2019,19,9375,7,-61,0,,0,A,empty,,0,0,0,1785362235.156
1785362237.019,4,1624,-21,-16279,326,21,231,-1872,11,11,11,0,100,2120,2099,44,21399,7,-67,0,,0,A,empty,,0,0,0,1785362235.156
1785362237.019,3,1891,-78,-17927,-190,206,120,-928,17,13,10,0,100,2032,2013,46,22293,7,-51,0,,0,A,empty,,0,0,0,1785362235.156
1785362237.019,2,495,1392,-16963,-1247,-671,55,-2112,10,10,11,0,100,2057,2034,129,62350,7,-50,0,,0,A,empty,,0,0,0,1785362235.156
1785362237.043,5,1828,-781,-15650,76,-13,-124,-1312,11,13,11,0,100,2326,2303,42,20530,7,-65,0,,0,A,empty,,0,0,0,1785362235.156
1785362237.043,6,5686,13636,7238,-324,-325,-60,-880,29,14,15,0,100,1996,1979,41,19691,7,-62,0,,0,A,empty,,0,0,0,1785362235.156
1785362237.068,1,5692,14969,94,104,194,-90,-2240,11,13,8,0,100,2163,2128,142,2893,7,-53,0,,0,A,empty,,0,0,0,1785362235.156
1785362237.135,7,1274,259,-16389,245,-159,158,-2016,14,15,15,0,100,2027,2019,19,9376,7,-62,0,,0,A,empty,,0,0,0,1785362235.156
1785362237.135,4,1624,-22,-16282,325,22,230,-1872,11,11,10,0,100,2120,2099,44,21400,7,-66,0,,0,A,empty,,0,0,0,1785362235.156
1785362237.136,3,1890,-72,-17931,-190,207,119,-880,17,14,10,0,100,2030,2013,46,22294,7,-49,0,,0,A,empty,,0,0,0,1785362235.156
1785362237.159,2,496,1392,-16966,-1246,-671,54,-2144,10,10,11,0,100,2057,2034,129,62351,7,-51,0,,0,A,empty,,0,0,0,1785362235.156
1785362237.159,5,1831,-784,-15651,76,-13,-124,-1312,11,13,10,0,100,2328,2303,42,20531,7,-66,0,,0,A,empty,,0,0,0,1785362235.156
1785362237.159,6,5685,13634,7234,-324,-325,-62,-896,27,13,15,0,100,1996,1979,41,19692,7,-61,0,,0,A,empty,,0,0,0,1785362235.156
1785362237.184,1,5695,14964,91,105,194,-90,-2272,11,12,9,0,100,2162,2128,142,2894,7,-55,0,,0,A,empty,,0,0,0,1785362235.156
1785362237.255,7,1275,262,-16385,244,-159,159,-2032,14,16,15,0,100,2028,2019,19,9377,7,-61,0,,0,A,empty,,0,0,0,1785362235.156
1785362237.281,4,1625,-23,-16282,325,22,230,-1824,11,11,11,0,100,2121,2099,44,21401,7,-64,0,,0,A,empty,,0,0,0,1785362235.156
1785362237.281,3,1888,-71,-17931,-188,207,118,-944,15,15,10,0,100,2030,2013,46,22295,7,-50,0,,0,A,empty,,0,0,0,1785362235.156
1785362237.281,2,492,1393,-16960,-1248,-670,54,-2144,11,10,11,0,100,2056,2034,129,62352,7,-51,0,,0,A,empty,,0,0,0,1785362235.156
1785362237.281,5,1826,-787,-15648,77,-12,-123,-1312,11,13,11,0,100,2325,2303,42,20532,7,-67,0,,0,A,empty,,0,0,0,1785362235.156
1785362237.301,6,5681,13635,7238,-325,-326,-62,-848,31,13,16,0,100,1996,1979,41,19693,7,-61,0,,0,A,empty,,0,0,0,1785362235.156
1785362237.322,1,5695,14960,87,105,194,-90,-2224,11,12,9,0,100,2162,2128,142,2895,7,-56,0,,0,A,empty,,0,0,0,1785362235.156
1785362237.393,7,1274,261,-16391,244,-159,159,-2000,14,15,14,0,100,2028,2019,19,9378,7,-61,0,,0,A,empty,,0,0,0,1785362235.156
1785362237.394,4,1626,-23,-16283,324,22,231,-1856,11,11,11,0,100,2122,2099,44,21402,7,-64,0,,0,A,empty,,0,0,0,1785362235.156
1785362237.394,3,1888,-71,-17924,-189,207,118,-944,15,15,10,0,100,2031,2013,46,22296,7,-50,0,,0,A,empty,,0,0,0,1785362235.156
1785362237.419,5,1825,-788,-15654,78,-11,-123,-1296,11,12,10,0,100,2327,2303,42,20533,7,-66,0,,0,A,empty,,0,0,0,1785362235.156
1785362237.419,6,5681,13636,7236,-324,-326,-61,-880,32,14,14,0,100,1995,1979,41,19694,7,-62,0,,0,A,empty,,0,0,0,1785362235.156
1785362237.444,1,5692,14958,80,105,194,-90,-2256,11,11,9,0,100,2161,2128,142,2896,7,-56,0,,0,A,empty,,0,0,0,1785362235.156
1785362237.516,7,1275,263,-16398,243,-159,158,-2016,14,15,14,0,100,2028,2019,19,9379,7,-62,0,,0,A,empty,,0,0,0,1785362235.156
1785362237.516,4,1621,-24,-16285,324,21,230,-1840,11,11,11,0,100,2121,2099,44,21403,7,-64,0,,0,A,empty,,0,0,0,1785362235.156
1785362237.516,3,1887,-72,-17927,-189,207,118,-912,15,16,11,0,100,2031,2013,46,22297,7,-50,0,,0,A,empty,,0,0,0,1785362235.156
1785362237.537,5,1823,-785,-15653,78,-10,-123,-1328,11,11,10,0,100,2326,2303,42,20534,7,-67,0,,0,A,empty,,0,0,0,1785362235.156
1785362237.631,7,1271,263,-16400,242,-159,158,-2048,13,14,14,0,100,2027,2019,19,9380,7,-62,0,,0,A,empty,,0,0,0,1785362235.156
1785362237.631,4,1625,-24,-16291,324,20,231,-1840,11,11,11,0,100,2121,2099,44,21404,7,-63,0,,0,A,empty,,0,0,0,1785362235.156
1785362237.656,3,1888,-66,-17930,-189,208,119,-896,13,15,11,0,100,2031,2013,46,22298,7,-50,0,,0,A,empty,,0,0,0,1785362235.156
1785362237.656,2,490,1389,-16957,-1249,-670,53,-2144,11,11,11,0,100,2057,2034,129,62355,7,-50,0,,0,A,empty,,0,0,0,1785362235.156
1785362237.656,5,1821,-788,-15651,79,-9,-123,-1344,11,10,11,0,100,2327,2303,42,20535,7,-66,0,,0,A,empty,,0,0,0,1785362235.156
1785362237.681,6,5683,13632,7241,-324,-327,-62,-880,30,14,15,0,100,1997,1979,41,19696,7,-62,0,,0,A,empty,,0,0,0,1785362235.156
1785362237.776,7,1271,263,-16410,242,-159,158,-2000,12,15,13,0,100,2028,2019,19,9381,7,-61,0,,0,A,empty,,0,0,0,1785362235.156
1785362237.776,4,1627,-22,-16291,324,20,231,-1856,11,11,11,0,100,2121,2099,44,21405,7,-64,0,,0,A,empty,,0,0,0,1785362235.156
1785362237.776,3,1884,-64,-17927,-189,208,119,-960,13,16,10,0,100,2031,2013,46,22299,7,-50,0,,0,A,empty,,0,0,0,1785362235.156
1785362237.776,2,487,1390,-16960,-1248,-671,53,-2144,11,11,11,0,100,2056,2034,129,62356,7,-50,0,,0,A,empty,,0,0,0,1785362235.156
1785362237.776,5,1821,-790,-15650,78,-10,-124,-1344,12,10,11,0,100,2328,2303,42,20536,7,-66,0,,0,A,empty,,0,0,0,1785362235.156
1785362237.802,6,5682,13631,7239,-325,-327,-63,-864,30,14,15,0,100,1997,1979,41,19697,7,-61,0,,0,A,empty,,0,0,0,1785362235.156
1785362237.826,1,5690,14960,77,106,194,-90,-2256,12,11,10,0,100,2162,2128,142,2899,7,-56,0,,0,A,empty,,0,0,0,1785362235.156
1785362237.901,4,1629,-22,-16293,324,20,232,-1824,11,12,11,0,100,2121,2099,44,21406,7,-61,0,,0,A,empty,,0,0,0,1785362235.156
1785362237.901,3,1884,-65,-17929,-188,209,120,-928,13,15,11,0,100,2030,2013,46,22300,7,-50,0,,0,A,empty,,0,0,0,1785362235.156
1785362237.901,2,489,1388,-16959,-1249,-670,53,-2112,10,10,11,0,100,2056,2034,129,62357,7,-50,0,,0,A,empty,,0,0,0,1785362235.156
1785362237.925,5,1821,-791,-15654,78,-11,-125,-1312,11,10,10,0,100,2327,2303,42,20537,7,-67,0,,0,A,empty,,0,0,0,1785362235.156
1785362237.925,6,5677,13634,7242,-326,-326,-62,-880,29,14,15,0,100,1996,1979,41,19698,7,-61,0,,0,A,empty,,0,0,0,1785362235.156
1785362237.947,1,5696,14954,84,107,194,-90,-2256,11,11,10,0,100,2162,2128,142,2900,7,-56,0,,0,A,empty,,0,0,0,1785362235.156
1785362238.017,7,1271,264,-16413,243,-159,158,-2048,13,15,13,0,100,2028,2019,19,9383,7,-61,0,,0,A,empty,,0,0,0,1785362235.156
1785362238.017,4,1631,-22,-16292,324,21,232,-1840,11,12,11,0,100,2121,2099,44,21407,7,-64,0,,0,A,empty,,0,0,0,1785362235.156
1785362238.017,3,1880,-67,-17931,-189,208,118,-928,13,15,11,0,100,2031,2013,46,22301,7,-51,0,,0,A,empty,,0,0,0,1785362235.156
1785362238.017,2,483,1388,-16959,-1249,-668,53,-2128,11,10,11,0,100,2055,2034,129,62358,7,-50,0,,0,A,empty,,0,0,0,1785362235.156
1785362238.038,5,1821,-790,-15657,78,-11,-125,-1312,11,10,10,0,100,2326,2303,42,20538,7,-66,0,,0,A,empty,,0,0,0,1785362235.156
1785362238.038,6,5675,13630,7247,-326,-326,-62,-896,29,14,16,0,100,1996,1979,41,19699,7,-59,0,,0,A,empty,,0,0,0,1785362235.156
1785362238.134,7,1274,268,-16407,243,-159,158,-2000,13,15,12,0,100,2028,2019,19,9384,7,-61,0,,0,A,empty,,0,0,0,1785362235.156
1785362238.134,4,1630,-23,-16286,325,21,233,-1856,11,12,11,0,100,2121,2099,44,21408,7,-65,0,,0,A,empty,,0,0,0,1785362235.156
1785362238.157,2,483,1390,-16960,-1249,-669,53,-2128,10,11,11,0,100,2056,2034,129,62359,7,-49,0,,0,A,empty,,0,0,0,1785362235.156
1785362238.157,5,1819,-790,-15659,79,-11,-124,-1328,11,10,10,0,100,2325,2303,42,20539,7,-66,0,,0,A,empty,,0,0,0,1785362235.156
1785362238.178,6,5675,13633,7246,-326,-327,-62,-880,27,14,15,0,100,1997,1979,41,19700,7,-60,0,,0,A,empty,,0,0,0,1785362235.156
1785362238.203,1,5693,14951,93,107,195,-89,-2272,11,11,11,0,100,2162,2128,142,2902,7,-57,0,,0,A,empty,,0,0,0,1785362235.156
1785362238.277,4,1631,-23,-16287,326,21,233,-1856,11,12,11,0,100,2121,2099,44,21409,7,-66,0,,0,A,empty,,0,0,0,1785362235.156
1785362238.277,3,1879,-69,-17930,-190,207,120,-912,13,15,11,0,100,2031,2013,46,22303,7,-50,0,,0,A,empty,,0,0,0,1785362235.156
1785362238.277,2,483,1393,-16967,-1249,-670,53,-2112,10,11,11,0,100,2056,2034,129,62360,7,-51,0,,0,A,empty,,0,0,0,1785362235.156
1785362238.277,5,1824,-789,-15664,78,-11,-125,-1360,11,9,10,0,100,2325,2303,42,20540,7,-66,0,,0,A,empty,,0,0,0,1785362235.156
1785362238.302,6,5680,13634,7247,-326,-325,-62,-880,20,13,14,0,100,1996,1979,41,19701,7,-60,0,,0,A,empty,,0,0,0,1785362235.156
1785362238.323,1,5692,14951,97,107,194,-90,-2224,11,12,11,0,100,2162,2128,142,2903,7,-57,0,,0,A,empty,,0,0,0,1785362235.156
1785362238.398,7,1278,269,-16394,243,-158,157,-2016,13,14,13,0,100,2028,2019,19,9386,7,-61,0,,0,A,empty,,0,0,0,1785362235.156
1785362238.398,4,1632,-21,-16283,326,21,232,-1840,12,11,10,0,100,2122,2099,44,21410,7,-66,0,,0,A,empty,,0,0,0,1785362235.156
1785362238.398,3,1883,-68,-17936,-190,207,119,-912,13,14,12,0,100,2031,2013,46,22304,7,-50,0,,0,A,empty,,0,0,0,1785362235.156
1785362238.398,2,483,1395,-16961,-1249,-669,54,-2128,9,11,11,0,100,2057,2034,129,62361,7,-50,0,,0,A,empty,,0,0,0,1785362235.156
1785362238.423,5,1822,-791,-15661,78,-11,-125,-1312,10,10,10,0,100,2325,2303,42,20541,7,-67,0,,0,A,empty,,0,0,0,1785362235.156
1785362238.423,6,5681,13632,7248,-325,-325,-62,-880,18,14,14,0,100,1996,1979,41,19702,7,-61,0,,0,A,empty,,0,0,0,1785362235.156
1785362238.448,1,5696,14953,97,106,193,-90,-2256,11,12,11,0,100,2164,2128,142,2904,7,-58,0,,0,A,empty,,0,0,0,1785362235.156
1785362238.519,7,1274,269,-16393,244,-158,158,-2032,14,13,13,0,100,2028,2019,19,9387,7,-62,0,,0,A,empty,,0,0,0,1785362235.156
1785362238.519,4,1632,-22,-16281,326,21,233,-1888,12,11,10,0,100,2122,2099,44,21411,7,-66,0,,0,A,empty,,0,0,0,1785362235.156
1785362238.519,3,1880,-69,-17933,-190,206,119,-912,13,13,12,0,100,2031,2013,46,22305,7,-50,0,,0,A,empty,,0,0,0,1785362235.156
1785362238.519,2,483,1394,-16963,-1248,-670,55,-2112,9,10,11,0,100,2057,2034,129,62362,7,-51,0,,0,A,empty,,0,0,0,1785362235.156
1785362238.544,5,1822,-790,-15659,78,-12,-125,-1312,10,10,9,0,100,2329,2303,42,20542,7,-67,0,,0,A,empty,,0,0,0,1785362235.156
1785362238.544,6,5682,13633,7249,-325,-324,-62,-848,19,13,14,0,100,1995,1979,41,19703,7,-62,0,,0,A,empty,,0,0,0,1785362235.156
1785362238.569,1,5700,14951,91,106,193,-90,-2240,13,13,10,0,100,2161,2128,142,2905,7,-58,0,,0,A,empty,,0,0,0,1785362235.156
1785362238.643,7,1278,265,-16398,245,-158,158,-2000,14,14,13,0,100,2028,2019,19,9388,7,-62,0,,0,A,empty,,0,0,0,1785362235.156
1785362238.644,4,1626,-23,-16275,326,22,232,-1872,11,11,10,0,100,2122,2099,44,21412,7,-67,0,,0,A,empty,,0,0,0,1785362235.156
1785362238.644,3,1880,-71,-17929,-189,205,118,-928,14,14,11,0,100,2031,2013,46,22306,7,-50,0,,0,A,empty,,0,0,0,1785362235.156
1785362238.668,5,1823,-785,-15661,77,-12,-124,-1312,10,10,10,0,100,2326,2303,42,20543,7,-65,0,,0,A,empty,,0,0,0,1785362235.156
1785362238.668,6,5683,13634,7244,-324,-324,-61,-864,20,13,14,0,100,1994,1979,41,19704,7,-61,0,,0,A,empty,,0,0,0,1785362235.156
1785362238.691,1,5698,14954,92,105,193,-90,-2240,12,14,11,0,100,2162,2128,142,2906,7,-58,0,,0,A,empty,,0,0,0,1785362235.156
1785362238.766,7,1275,261,-16391,245,-158,158,-2016,15,12,13,0,100,2028,2019,19,9389,7,-60,0,,0,A,empty,,0,0,0,1785362235.156
1785362238.766,4,1628,-25,-16271,326,22,231,-1840,11,11,10,0,100,2122,2099,44,21413,7,-68,0,,0,A,empty,,0,0,0,1785362235.156
1785362238.766,3,1878,-72,-17932,-189,204,118,-912,13,14,12,0,100,2031,2013,46,22307,7,-50,0,,0,A,empty,,0,0,0,1785362235.156
1785362238.791,5,1821,-785,-15666,77,-12,-125,-1312,10,10,9,0,100,2328,2303,42,20544,7,-67,0,,0,A,empty,,0,0,0,1785362235.156
1785362238.791,6,5683,13637,7245,-323,-324,-61,-880,21,13,14,0,100,1994,1979,41,19705,7,-62,0,,0,A,empty,,0,0,0,1785362235.156
1785362238.816,1,5698,14951,90,104,194,-90,-2256,12,14,11,0,100,2162,2128,142,2907,7,-57,0,,0,A,empty,,0,0,0,1785362235.156
1785362238.892,7,1273,260,-16388,246,-158,158,-2032,15,12,13,0,100,2028,2019,19,9390,7,-61,0,,0,A,empty,,0,0,0,1785362235.156
1785362238.892,4,1625,-23,-16266,325,22,231,-1824,11,11,9,0,100,2121,2099,44,21414,7,-67,0,,0,A,empty,,0,0,0,1785362235.156
1785362238.892,3,1877,-69,-17933,-190,204,118,-912,13,14,12,0,100,2030,2013,46,22308,7,-50,0,,0,A,empty,,0,0,0,1785362235.156
1785362238.916,2,480,1396,-16967,-1248,-670,55,-2112,10,11,11,0,100,2057,2034,129,62365,7,-50,0,,0,A,empty,,0,0,0,1785362235.156
1785362238.916,5,1820,-780,-15669,77,-12,-124,-1328,10,10,9,0,100,2328,2303,42,20545,7,-68,0,,0,A,empty,,0,0,0,1785362235.156
1785362238.916,6,5684,13634,7244,-322,-324,-63,-896,20,13,13,0,100,1996,1979,41,19706,7,-63,0,,0,A,empty,,0,0,0,1785362235.156
1785362238.939,1,5697,14954,79,104,195,-89,-2240,12,15,11,0,100,2163,2128,142,2908,7,-55,0,,0,A,empty,,0,0,0,1785362235.156
1785362239.011,7,1277,260,-16389,247,-159,158,-2048,14,12,13,0,100,2028,2019,19,9391,7,-62,0,,0,A,empty,,0,0,0,1785362235.156
1785362239.011,4,1622,-23,-16268,325,22,230,-1856,12,10,9,0,100,2122,2099,44,21415,7,-68,0,,0,A,empty,,0,0,0,1785362235.156
1785362239.035,3,1880,-67,-17930,-190,205,118,-928,14,14,13,0,100,2030,2013,46,22309,7,-50,0,,0,A,empty,,0,0,0,1785362235.156
1785362239.035,2,484,1394,-16970,-1247,-671,55,-2144,10,11,12,0,100,2057,2034,129,62366,7,-50,0,,0,A,empty,,0,0,0,1785362235.156
1785362239.035,5,1819,-780,-15669,78,-13,-124,-1328,11,10,9,0,100,2328,2303,42,20546,7,-69,0,,0,A,empty,,0,0,0,1785362235.156
1785362239.059,6,5683,13639,7236,-322,-323,-63,-864,19,14,13,0,100,1996,1979,41,19707,7,-64,0,,0,A,empty,,0,0,0,1785362235.156
1785362239.134,7,1275,256,-16392,246,-160,158,-2016,15,12,13,0,100,2027,2019,19,9392,7,-61,0,,0,A,empty,,0,0,0,1785362235.156
1785362239.134,4,1624,-19,-16268,324,22,231,-1840,11,10,9,0,100,2122,2099,44,21416,7,-68,0,,0,A,empty,,0,0,0,1785362235.156
1785362239.159,2,482,1394,-16970,-1248,-671,54,-2144,10,10,11,0,100,2056,2034,129,62367,7,-48,0,,0,A,empty,,0,0,0,1785362235.156
1785362239.159,5,1821,-778,-15665,77,-13,-125,-1328,10,10,10,0,100,2326,2303,42,20547,7,-66,0,,0,A,empty,,0,0,0,1785362235.156
1785362239.159,6,5683,13639,7235,-321,-323,-64,-864,19,14,15,0,100,1996,1979,41,19708,7,-63,0,,0,A,empty,,0,0,0,1785362235.156
1785362239.184,1,5696,14963,76,105,195,-89,-2256,13,15,10,0,100,2162,2128,142,2910,7,-56,0,,0,A,empty,,0,0,0,1785362235.156
1785362239.256,7,1276,260,-16401,246,-160,159,-2032,14,12,12,0,100,2028,2019,19,9393,7,-60,0,,0,A,empty,,0,0,0,1785362235.156
1785362239.280,4,1624,-19,-16269,324,22,230,-1808,12,10,9,0,100,2122,2099,44,21417,7,-64,0,,0,A,empty,,0,0,0,1785362235.156
1785362239.280,3,1882,-68,-17927,-188,205,117,-912,14,13,12,0,100,2030,2013,46,22311,7,-50,0,,0,A,empty,,0,0,0,1785362235.156
1785362239.280,2,486,1392,-16968,-1247,-672,54,-2128,10,10,11,0,100,2056,2034,129,62368,7,-50,0,,0,A,empty,,0,0,0,1785362235.156
1785362239.280,5,1820,-777,-15665,76,-14,-125,-1328,11,11,10,0,100,2325,2303,42,20548,7,-69,0,,0,A,empty,,0,0,0,1785362235.156
1785362239.306,6,5679,13639,7232,-320,-323,-63,-896,19,15,16,0,100,1996,1979,41,19709,7,-62,0,,0,A,empty,,0,0,0,1785362235.156
1785362239.331,1,5697,14962,79,104,196,-88,-2256,13,14,11,0,100,2162,2128,142,2911,7,-56,0,,0,A,empty,,0,0,0,1785362235.156
1785362239.378,7,1274,257,-16411,247,-159,159,-2032,14,12,12,0,100,2027,2019,19,9394,7,-61,0,,0,A,empty,,0,0,0,1785362235.156
1785362239.403,4,1622,-20,-16281,325,23,229,-1824,11,10,9,0,100,2122,2099,44,21418,7,-66,0,,0,A,empty,,0,0,0,1785362235.156
1785362239.403,3,1880,-69,-17925,-188,204,117,-960,13,14,12,0,100,2030,2013,46,22312,7,-50,0,,0,A,empty,,0,0,0,1785362235.156
1785362239.403,2,485,1392,-16967,-1247,-672,54,-2112,10,10,11,0,100,2056,2034,129,62369,7,-48,0,,0,A,empty,,0,0,0,1785362235.156
1785362239.403,5,1821,-780,-15664,76,-13,-125,-1312,11,11,11,0,100,2329,2303,42,20549,7,-65,0,,0,A,empty,,0,0,0,1785362235.156
1785362239.427,6,5678,13645,7232,-320,-324,-62,-912,21,14,16,0,100,1995,1979,41,19710,7,-64,0,,0,A,empty,,0,0,0,1785362235.156
1785362239.451,1,5700,14964,79,104,196,-88,-2272,13,14,11,0,100,2161,2128,142,2912,7,-57,0,,0,A,empty,,0,0,0,1785362235.156
1785362239.526,7,1278,258,-16413,247,-160,159,-2016,13,12,12,0,100,2028,2019,19,9395,7,-61,0,,0,A,empty,,0,0,0,1785362235.156
1785362239.526,4,1623,-16,-16281,325,22,230,-1840,11,10,9,0,100,2122,2099,44,21419,7,-63,0,,0,A,empty,,0,0,0,1785362235.156
1785362239.527,3,1878,-68,-17920,-188,204,116,-928,13,14,12,0,100,2030,2013,46,22313,7,-52,0,,0,A,empty,,0,0,0,1785362235.156
1785362239.527,2,483,1394,-16968,-1248,-672,54,-2128,10,10,11,0,100,2056,2034,129,62370,7,-51,0,,0,A,empty,,0,0,0,1785362235.156
1785362239.527,5,1825,-784,-15666,76,-14,-125,-1344,10,11,10,0,100,2326,2303,42,20550,7,-65,0,,0,A,empty,,0,0,0,1785362235.156
1785362239.550,6,5677,13646,7228,-320,-324,-61,-848,22,14,16,0,100,1995,1979,41,19711,7,-62,0,,0,A,empty,,0,0,0,1785362235.156
1785362239.574,1,5698,14966,84,105,195,-87,-2240,12,14,11,0,100,2162,2128,142,2913,7,-57,0,,0,A,empty,,0,0,0,1785362235.156
1785362239.645,7,1277,260,-16404,246,-159,158,-2032,13,12,13,0,100,2028,2019,19,9396,7,-61,0,,0,A,empty,,0,0,0,1785362235.156
1785362239.645,4,1623,-17,-16289,325,22,231,-1840,11,11,9,0,100,2122,2099,44,21420,7,-65,0,,0,A,empty,,0,0,0,1785362235.156
1785362239.645,3,1876,-70,-17916,-188,205,117,-928,13,14,12,0,100,2030,2013,46,22314,7,-51,0,,0,A,empty,,0,0,0,1785362235.156
1785362239.670,5,1827,-784,-15671,77,-12,-126,-1328,10,11,10,0,100,2327,2303,42,20551,7,-67,0,,0,A,empty,,0,0,0,1785362235.156
1785362239.670,6,5678,13645,7233,-321,-324,-62,-880,21,14,17,0,100,1995,1979,41,19712,7,-62,0,,0,A,empty,,0,0,0,1785362235.156
1785362239.695,1,5700,14964,79,105,195,-89,-2256,12,13,10,0,100,2163,2128,142,2914,7,-57,0,,0,A,empty,,0,0,0,1785362235.156
1785362239.768,7,1280,265,-16408,245,-159,158,-2048,12,13,12,0,100,2028,2019,19,9397,7,-60,0,,0,A,empty,,0,0,0,1785362235.156
1785362239.768,4,1620,-17,-16286,324,23,231,-1888,11,12,9,0,100,2122,2099,44,21421,7,-64,0,,0,A,empty,,0,0,0,1785362235.156
1785362239.768,3,1881,-74,-17914,-189,206,117,-896,13,14,12,0,100,2030,2013,46,22315,7,-50,0,,0,A,empty,,0,0,0,1785362235.156
1785362239.768,2,483,1387,-16975,-1248,-672,55,-2128,9,9,11,0,100,2057,2034,129,62372,7,-50,0,,0,A,empty,,0,0,0,1785362235.156
1785362239.793,5,1832,-783,-15672,76,-12,-125,-1296,9,12,10,0,100,2325,2303,42,20552,7,-67,0,,0,A,empty,,0,0,0,1785362235.156
1785362239.793,6,5679,13642,7234,-321,-324,-62,-880,21,14,17,0,100,1996,1979,41,19713,7,-63,0,,0,A,empty,,0,0,0,1785362235.156
1785362239.818,1,5700,14961,88,105,195,-88,-2240,12,13,11,0,100,2162,2128,142,2915,7,-57,0,,0,A,empty,,0,0,0,1785362235.156
1785362239.890,7,1280,266,-16412,244,-158,158,-2048,12,13,12,0,100,2028,2019,19,9398,7,-62,0,,0,A,empty,,0,0,0,1785362235.156
1785362239.890,4,1623,-16,-16291,324,23,231,-1840,11,12,9,0,100,2122,2099,44,21422,7,-64,0,,0,A,empty,,0,0,0,1785362235.156
1785362239.890,3,1884,-76,-17911,-189,207,116,-912,14,14,11,0,100,2030,2013,46,22316,7,-50,0,,0,A,empty,,0,0,0,1785362235.156
1785362239.916,2,484,1385,-16972,-1249,-672,55,-2128,10,9,11,0,100,2057,2034,129,62373,7,-50,0,,0,A,empty,,0,0,0,1785362235.156
1785362239.916,5,1835,-787,-15671,77,-13,-126,-1328,10,11,10,0,100,2326,2303,42,20553,7,-67,0,,0,A,empty,,0,0,0,1785362235.156
1785362239.916,6,5680,13643,7234,-321,-326,-61,-912,21,14,16,0,100,1997,1979,41,19714,7,-64,0,,0,A,empty,,0,0,0,1785362235.156
1785362239.941,1,5700,14964,100,104,194,-89,-2208,13,11,10,0,100,2162,2128,142,2916,7,-57,0,,0,A,empty,,0,0,0,1785362235.156
1785362240.010,7,1277,264,-16410,244,-158,159,-2064,12,12,13,0,100,2027,2019,19,9399,7,-61,0,,0,A,empty,,0,0,0,1785362235.156
1785362240.035,3,1885,-74,-17909,-189,206,117,-896,14,14,11,0,100,2030,2013,46,22317,7,-51,0,,0,A,empty,,0,0,0,1785362235.156
1785362240.035,2,486,1387,-16967,-1249,-672,55,-2096,10,10,11,0,100,2057,2034,129,62374,7,-51,0,,0,A,empty,,0,0,0,1785362235.156
1785362240.035,5,1832,-789,-15670,76,-12,-126,-1344,9,11,10,0,100,2327,2303,42,20554,7,-68,0,,0,A,empty,,0,0,0,1785362235.156
1785362240.059,6,5684,13643,7231,-321,-326,-61,-880,22,13,16,0,100,1996,1979,41,19715,7,-64,0,,0,A,empty,,0,0,0,1785362235.156
1785362240.134,7,1283,263,-16408,244,-157,159,-2064,12,12,13,0,100,2028,2019,19,9400,7,-62,0,,0,A,empty,,0,0,0,1785362235.156
1785362240.134,4,1624,-20,-16291,324,23,230,-1856,10,12,10,0,100,2122,2099,44,21424,7,-66,0,,0,A,empty,,0,0,0,1785362235.156
1785362240.159,2,489,1388,-16965,-1250,-671,55,-2128,10,10,11,0,100,2058,2034,129,62375,7,-51,0,,0,A,empty,,0,0,0,1785362235.156
1785362240.159,5,1831,-792,-15670,77,-12,-126,-1312,10,11,10,0,100,2331,2303,42,20555,7,-68,0,,0,A,empty,,0,0,0,1785362235.156
1785362240.159,6,5685,13644,7230,-322,-326,-60,-864,24,14,16,0,100,1994,1979,41,19716,7,-65,0,,0,A,empty,,0,0,0,1785362235.156
1785362240.185,1,5704,14966,95,103,193,-89,-2256,12,11,11,0,100,2161,2128,142,2918,7,-57,0,,0,A,empty,,0,0,0,1785362235.156
1785362240.280,4,1625,-19,-16289,324,24,232,-1824,9,12,9,0,100,2122,2099,44,21425,7,-65,0,,0,A,empty,,0,0,0,1785362235.156
1785362240.280,3,1888,-73,-17913,-190,206,117,-880,13,14,11,0,100,2030,2013,46,22319,7,-49,0,,0,A,empty,,0,0,0,1785362235.156
1785362240.280,2,487,1388,-16966,-1250,-671,54,-2112,10,11,12,0,100,2056,2034,129,62376,7,-51,0,,0,A,empty,,0,0,0,1785362235.156
1785362240.280,5,1831,-789,-15669,78,-13,-125,-1312,9,11,10,0,100,2326,2303,42,20556,7,-69,0,,0,A,empty,,0,0,0,1785362235.156
1785362240.305,6,5685,13644,7236,-322,-328,-62,-880,26,13,15,0,100,1996,1979,41,19717,7,-65,0,,0,A,empty,,0,0,0,1785362235.156
1785362240.327,1,5704,14970,92,103,193,-90,-2240,12,11,11,0,100,2162,2128,142,2919,7,-56,0,,0,A,empty,,0,0,0,1785362235.156
1785362240.377,7,1284,261,-16403,242,-157,159,-2032,11,13,13,0,100,2028,2019,19,9402,7,-61,0,,0,A,empty,,0,0,0,1785362235.156
1785362240.398,4,1627,-22,-16286,323,23,232,-1840,10,12,9,0,100,2121,2099,44,21426,7,-64,0,,0,A,empty,,0,0,0,1785362235.156
1785362240.398,3,1888,-74,-17921,-190,209,117,-896,13,14,11,0,100,2030,2013,46,22320,7,-50,0,,0,A,empty,,0,0,0,1785362235.156
1785362240.398,2,489,1389,-16972,-1250,-671,54,-2144,10,12,11,0,100,2056,2034,129,62377,7,-51,0,,0,A,empty,,0,0,0,1785362235.156
1785362240.423,5,1833,-786,-15674,77,-13,-125,-1264,10,11,9,0,100,2326,2303,42,20557,7,-69,0,,0,A,empty,,0,0,0,1785362235.156
1785362240.423,6,5682,13643,7238,-323,-328,-63,-880,26,13,14,0,100,1995,1979,41,19718,7,-65,0,,0,A,empty,,0,0,0,1785362235.156
1785362240.443,1,5698,14973,90,103,194,-89,-2256,11,10,11,0,100,2161,2128,142,2920,7,-56,0,,0,A,empty,,0,0,0,1785362235.156
1785362240.518,7,1282,258,-16398,242,-157,158,-2016,11,13,14,0,100,2027,2019,19,9403,7,-61,0,,0,A,empty,,0,0,0,1785362235.156
1785362240.518,4,1630,-25,-16287,323,23,233,-1872,10,12,9,0,100,2122,2099,44,21427,7,-63,0,,0,A,empty,,0,0,0,1785362235.156
1785362240.518,3,1893,-73,-17926,-191,208,117,-912,13,14,11,0,100,2030,2013,46,22321,7,-50,0,,0,A,empty,,0,0,0,1785362235.156
1785362240.518,2,490,1387,-16973,-1249,-671,54,-2128,10,12,11,0,100,2056,2034,129,62378,7,-51,0,,0,A,empty,,0,0,0,1785362235.156
1785362240.540,5,1830,-789,-15670,78,-12,-125,-1328,10,11,10,0,100,2325,2303,42,20558,7,-68,0,,0,A,empty,,0,0,0,1785362235.156
1785362240.540,6,5681,13640,7248,-323,-328,-64,-912,23,13,13,0,100,1995,1979,41,19719,7,-65,0,,0,A,empty,,0,0,0,1785362235.156
1785362240.565,1,5700,14974,84,103,195,-91,-2256,11,10,11,0,100,2162,2128,142,2921,7,-56,0,,0,A,empty,,0,0,0,1785362235.156
1785362240.633,7,1284,259,-16401,243,-159,160,-2032,12,13,13,0,100,2028,2019,19,9404,7,-62,0,,0,A,empty,,0,0,0,1785362235.156
1785362240.633,4,1627,-25,-16281,323,23,231,-1888,10,11,9,0,100,2122,2099,44,21428,7,-64,0,,0,A,empty,,0,0,0,1785362235.156
1785362240.657,2,491,1387,-16969,-1248,-671,54,-2144,10,12,11,0,100,2056,2034,129,62379,7,-52,0,,0,A,empty,,0,0,0,1785362235.156
1785362240.657,5,1832,-793,-15666,78,-13,-125,-1312,10,10,10,0,100,2327,2303,42,20559,7,-68,0,,0,A,empty,,0,0,0,1785362235.156
1785362240.704,1,5699,14974,84,104,195,-90,-2272,11,11,10,0,100,2163,2128,142,2922,7,-57,0,,0,A,empty,,0,0,0,1785362235.156
1785362240.776,7,1281,257,-16402,244,-159,159,-2032,11,12,13,0,100,2028,2019,19,9405,7,-61,0,,0,A,empty,,0,0,0,1785362235.156
1785362240.776,4,1628,-23,-16280,324,22,232,-1872,11,11,10,0,100,2121,2099,44,21429,7,-64,0,,0,A,empty,,0,0,0,1785362235.156
1785362240.776,3,1889,-68,-17933,-190,207,116,-928,12,14,11,0,100,2031,2013,46,22323,7,-50,0,,0,A,empty,,0,0,0,1785362235.156
1785362240.776,2,494,1390,-16966,-1249,-671,53,-2144,10,12,11,0,100,2057,2034,129,62380,7,-51,0,,0,A,empty,,0,0,0,1785362235.156
1785362240.776,5,1831,-788,-15662,78,-13,-125,-1312,10,11,10,0,100,2325,2303,42,20560,7,-68,0,,0,A,empty,,0,0,0,1785362235.156
1785362240.801,6,5682,13643,7240,-324,-328,-65,-848,26,13,12,0,100,1997,1979,41,19721,7,-64,0,,0,A,empty,,0,0,0,1785362235.156
1785362240.826,1,5695,14975,84,103,195,-91,-2256,11,11,10,0,100,2163,2128,142,2923,7,-55,0,,0,A,empty,,0,0,0,1785362235.156
1785362240.901,4,1628,-24,-16278,323,22,231,-1840,12,11,10,0,100,2121,2099,44,21430,7,-63,0,,0,A,empty,,0,0,0,1785362235.156
1785362240.901,3,1885,-70,-17932,-190,205,117,-928,12,14,11,0,100,2030,2013,46,22324,7,-50,0,,0,A,empty,,0,0,0,1785362235.156
1785362240.901,2,491,1392,-16966,-1249,-671,54,-2096,9,12,10,0,100,2057,2034,129,62381,7,-51,0,,0,A,empty,,0,0,0,1785362235.156
1785362240.924,6,5681,13643,7243,-324,-329,-65,-896,29,15,13,0,100,1995,1979,41,19722,7,-65,0,,0,A,empty,,0,0,0,1785362235.156
1785362240.950,1,5695,14974,79,104,195,-91,-2208,11,12,11,0,100,2161,2128,142,2924,7,-54,0,,0,A,empty,,0,0,0,1785362235.156
1785362241.024,7,1278,253,-16404,243,-161,159,-2032,13,12,13,0,100,2027,2019,19,9407,7,-62,0,,0,A,empty,,0,0,0,1785362235.156
1785362241.024,4,1630,-24,-16277,323,21,232,-1856,12,11,9,0,100,2122,2099,44,21431,7,-63,0,,0,A,empty,,0,0,0,1785362235.156
1785362241.024,3,1887,-72,-17935,-190,206,116,-928,12,14,10,0,100,2030,2013,46,22325,7,-50,0,,0,A,empty,,0,0,0,1785362235.156
1785362241.024,2,489,1394,-16969,-1248,-670,53,-2144,9,12,11,0,100,2057,2034,129,62382,7,-51,0,,0,A,empty,,0,0,0,1785362235.156
1785362241.024,5,1834,-784,-15664,78,-13,-124,-1312,11,12,10,0,100,2327,2303,42,20562,7,-69,0,,0,A,empty,,0,0,0,1785362235.156
1785362241.049,6,5680,13641,7249,-324,-328,-64,-880,29,14,14,0,100,1998,1979,41,19723,7,-65,0,,0,A,empty,,0,0,0,1785362235.156
1785362241.074,1,5696,14973,89,104,194,-92,-2256,10,12,11,0,100,2163,2128,142,2925,7,-56,0,,0,A,empty,,0,0,0,1785362235.156
1785362241.150,4,1630,-24,-16279,323,22,233,-1840,12,11,10,0,100,2122,2099,44,21432,7,-64,0,,0,A,empty,,0,0,0,1785362235.156
1785362241.150,3,1883,-73,-17936,-190,207,115,-928,12,13,10,0,100,2030,2013,46,22326,7,-49,0,,0,A,empty,,0,0,0,1785362235.156
1785362241.150,2,485,1394,-16970,-1248,-670,53,-2144,9,11,11,0,100,2057,2034,129,62383,7,-51,0,,0,A,empty,,0,0,0,1785362235.156
1785362241.171,5,1834,-784,-15666,77,-13,-124,-1328,11,12,9,0,100,2328,2303,42,20563,7,-70,0,,0,A,empty,,0,0,0,1785362235.156
1785362241.171,6,5681,13641,7246,-323,-328,-63,-896,27,15,14,0,100,1998,1979,41,19724,7,-64,0,,0,A,empty,,0,0,0,1785362235.156
1785362241.193,1,5692,14971,91,104,195,-90,-2224,11,12,11,0,100,2163,2128,142,2926,7,-56,0,,0,A,empty,,0,0,0,1785362235.156
1785362241.267,7,1274,259,-16400,243,-161,159,-2000,13,13,13,0,100,2028,2019,19,9409,7,-61,0,,0,A,empty,,0,0,0,1785362235.156
1785362241.267,4,1624,-24,-16279,323,22,231,-1856,12,12,10,0,100,2122,2099,44,21433,7,-63,0,,0,A,empty,,0,0,0,1785362235.156
1785362241.267,3,1882,-72,-17937,-191,207,116,-928,13,13,10,0,100,2029,2013,46,22327,7,-50,0,,0,A,empty,,0,0,0,1785362235.156
1785362241.267,2,484,1396,-16967,-1248,-670,52,-2112,9,10,11,0,100,2057,2034,129,62384,7,-51,0,,0,A,empty,,0,0,0,1785362235.156
1785362241.292,5,1836,-788,-15667,76,-13,-124,-1328,11,12,9,0,100,2328,2303,42,20564,7,-70,0,,0,A,empty,,0,0,0,1785362235.156
1785362241.292,6,5682,13639,7241,-324,-327,-63,-864,25,15,14,0,100,1998,1979,41,19725,7,-64,0,,0,A,empty,,0,0,0,1785362235.156
1785362241.317,1,5692,14967,94,105,194,-91,-2240,11,12,11,0,100,2162,2128,142,2927,7,-57,0,,0,A,empty,,0,0,0,1785362235.156
1785362241.384,7,1277,260,-16398,244,-162,159,-2000,15,13,13,0,100,2028,2019,19,9410,7,-61,0,,0,A,empty,,0,0,0,1785362235.156
1785362241.384,4,1625,-19,-16271,323,22,231,-1856,12,12,10,0,100,2122,2099,44,21434,7,-63,0,,0,A,empty,,0,0,0,1785362235.156
1785362241.409,2,484,1398,-16964,-1249,-670,52,-2112,10,10,10,0,100,2058,2034,129,62385,7,-51,0,,0,A,empty,,0,0,0,1785362235.156
1785362241.409,5,1838,-790,-15667,76,-13,-124,-1312,10,11,10,0,100,2327,2303,42,20565,7,-69,0,,0,A,empty,,0,0,0,1785362235.156
1785362241.409,6,5685,13637,7233,-323,-326,-63,-912,25,15,14,0,100,1997,1979,41,19726,7,-63,0,,0,A,empty,,0,0,0,1785362235.156
1785362241.434,1,5693,14963,99,106,194,-92,-2240,11,12,11,0,100,2161,2128,142,2928,7,-57,0,,0,A,empty,,0,0,0,1785362235.156
1785362241.509,7,1274,262,-16410,244,-161,160,-2016,15,13,13,0,100,2028,2019,19,9411,7,-61,0,,0,A,empty,,0,0,0,1785362235.156
1785362241.534,3,1877,-73,-17934,-191,207,116,-928,12,12,10,0,100,2031,2013,46,22329,7,-50,0,,0,A,empty,,0,0,0,1785362235.156
1785362241.535,2,488,1398,-16963,-1249,-670,52,-2128,10,10,11,0,100,2057,2034,129,62386,7,-51,0,,0,A,empty,,0,0,0,1785362235.156
1785362241.535,5,1841,-785,-15671,76,-13,-124,-1344,10,11,10,0,100,2327,2303,42,20566,7,-69,0,,0,A,empty,,0,0,0,1785362235.156
1785362241.559,6,5688,13642,7229,-323,-326,-63,-880,24,14,14,0,100,1996,1979,41,19727,7,-64,0,,0,A,empty,,0,0,0,1785362235.156
1785362241.633,7,1273,258,-16409,243,-160,158,-2016,16,13,13,0,100,2028,2019,19,9412,7,-61,0,,0,A,empty,,0,0,0,1785362235.156
1785362241.633,4,1618,-19,-16269,323,24,232,-1856,11,12,10,0,100,2122,2099,44,21436,7,-62,0,,0,A,empty,,0,0,0,1785362235.156
1785362241.659,2,488,1396,-16962,-1249,-670,52,-2144,10,9,10,0,100,2057,2034,129,62387,7,-51,0,,0,A,empty,,0,0,0,1785362235.156
1785362241.659,5,1839,-779,-15676,76,-12,-124,-1376,10,11,10,0,100,2328,2303,42,20567,7,-69,0,,0,A,empty,,0,0,0,1785362235.156
1785362241.684,1,5689,14960,104,106,194,-91,-2240,11,11,11,0,100,2162,2128,142,2930,7,-57,0,,0,A,empty,,0,0,0,1785362235.156
1785362241.759,7,1273,258,-16406,243,-160,157,-2032,17,14,13,0,100,2028,2019,19,9413,7,-61,0,,0,A,empty,,0,0,0,1785362235.156
1785362241.784,3,1880,-72,-17936,-192,208,117,-880,12,13,10,0,100,2031,2013,46,22331,7,-50,0,,0,A,empty,,0,0,0,1785362235.156
1785362241.784,2,488,1393,-16962,-1249,-671,52,-2096,10,9,11,0,100,2057,2034,129,62388,7,-51,0,,0,A,empty,,0,0,0,1785362235.156
1785362241.784,5,1837,-785,-15677,75,-13,-125,-1328,10,10,10,0,100,2328,2303,42,20568,7,-70,0,,0,A,empty,,0,0,0,1785362235.156
1785362241.805,6,5686,13643,7237,-323,-324,-64,-880,23,14,15,0,100,1995,1979,41,19729,7,-64,0,,0,A,empty,,0,0,0,1785362235.156
1785362241.827,1,5694,14964,103,105,195,-91,-2272,12,11,12,0,100,2162,2128,142,2931,7,-57,0,,0,A,empty,,0,0,0,1785362235.156
1785362241.877,7,1274,261,-16403,243,-160,159,-2048,16,14,13,0,100,2028,2019,19,9414,7,-61,0,,0,A,empty,,0,0,0,1785362235.156
1785362241.901,4,1621,-17,-16268,324,24,233,-1808,11,12,10,0,100,2122,2099,44,21438,7,-62,0,,0,A,empty,,0,0,0,1785362235.156
1785362241.901,3,1883,-70,-17940,-192,209,118,-912,13,13,10,0,100,2032,2013,46,22332,7,-50,0,,0,A,empty,,0,0,0,1785362235.156
1785362241.901,2,490,1390,-16957,-1249,-672,51,-2096,10,10,11,0,100,2056,2034,129,62389,7,-51,0,,0,A,empty,,0,0,0,1785362235.156
1785362241.926,6,5689,13645,7236,-324,-323,-65,-880,19,13,14,0,100,1998,1979,41,19730,7,-64,0,,0,A,empty,,0,0,0,1785362235.156
1785362241.951,1,5695,14963,100,106,196,-90,-2256,11,11,12,0,100,2162,2128,142,2932,7,-57,0,,0,A,empty,,0,0,0,1785362235.156
1785362242.027,7,1273,262,-16409,244,-159,159,-2032,15,15,13,0,100,2028,2019,19,9415,7,-61,0,,0,A,empty,,0,0,0,1785362235.156
1785362242.027,4,1620,-15,-16269,324,26,233,-1872,11,12,11,0,100,2121,2099,44,21439,7,-62,0,,0,A,empty,,0,0,0,1785362235.156
1785362242.027,3,1878,-70,-17940,-192,208,118,-944,12,13,11,0,100,2031,2013,46,22333,7,-50,0,,0,A,empty,,0,0,0,1785362235.156
1785362242.027,2,489,1393,-16957,-1250,-672,52,-2144,10,10,11,0,100,2056,2034,129,62390,7,-51,0,,0,A,empty,,0,0,0,1785362235.156
1785362242.027,5,1834,-790,-15677,76,-12,-125,-1328,10,9,11,0,100,2329,2303,42,20570,7,-70,0,,0,A,empty,,0,0,0,1785362235.156
1785362242.052,6,5689,13647,7237,-324,-326,-65,-864,19,13,14,0,100,1998,1979,41,19731,7,-64,0,,0,A,empty,,0,0,0,1785362235.156
1785362242.077,1,5694,14961,92,106,195,-89,-2240,12,11,12,0,100,2163,2128,142,2933,7,-57,0,,0,A,empty,,0,0,0,1785362235.156
1785362242.127,7,1269,259,-16412,243,-160,159,-2048,16,14,13,0,100,2028,2019,19,9416,7,-61,0,,0,A,empty,,0,0,0,1785362235.156
1785362242.152,4,1618,-12,-16272,324,25,233,-1824,11,12,11,0,100,2122,2099,44,21440,7,-61,0,,0,A,empty,,0,0,0,1785362235.156
1785362242.152,3,1881,-70,-17937,-192,208,118,-912,11,14,11,0,100,2031,2013,46,22334,7,-49,0,,0,A,empty,,0,0,0,1785362235.156
1785362242.152,2,492,1393,-16959,-1250,-672,52,-2128,10,10,11,0,100,2057,2034,129,62391,7,-50,0,,0,A,empty,,0,0,0,1785362235.156
1785362242.177,6,5689,13644,7241,-324,-325,-65,-912,22,12,14,0,100,1996,1979,41,19732,7,-63,0,,0,A,empty,,0,0,0,1785362235.156
1785362242.202,1,5693,14959,94,106,194,-90,-2240,12,11,11,0,100,2161,2128,142,2934,7,-58,0,,0,A,empty,,0,0,0,1785362235.156
1785362242.277,7,1273,257,-16410,244,-160,159,-2048,16,13,13,0,100,2028,2019,19,9417,7,-62,0,,0,A,empty,,0,0,0,1785362235.156
1785362242.277,4,1620,-11,-16268,324,24,234,-1808,11,11,10,0,100,2121,2099,44,21441,7,-62,0,,0,A,empty,,0,0,0,1785362235.156
1785362242.277,3,1881,-67,-17933,-191,207,119,-944,12,14,11,0,100,2031,2013,46,22335,7,-50,0,,0,A,empty,,0,0,0,1785362235.156
1785362242.277,2,495,1389,-16956,-1250,-671,51,-2144,9,10,11,0,100,2055,2034,130,62392,7,-51,0,,0,A,empty,,0,0,0,1785362235.156
1785362242.277,5,1826,-787,-15682,77,-11,-124,-1312,10,9,11,0,100,2326,2303,42,20572,7,-71,0,,0,A,empty,,0,0,0,1785362235.156
1785362242.302,6,5693,13645,7240,-324,-324,-65,-880,23,12,14,0,100,1995,1979,41,19733,7,-62,0,,0,A,empty,,0,0,0,1785362235.156
1785362242.327,1,5692,14962,94,106,194,-90,-2256,12,12,11,0,100,2161,2128,142,2935,7,-57,0,,0,A,empty,,0,0,0,1785362235.156
1785362242.399,7,1272,257,-16415,244,-159,159,-2032,14,13,13,0,100,2028,2019,19,9418,7,-61,0,,0,A,empty,,0,0,0,1785362235.156
1785362242.399,4,1618,-10,-16270,325,24,233,-1824,12,11,10,0,100,2122,2099,44,21442,7,-62,0,,0,A,empty,,0,0,0,1785362235.156
1785362242.399,3,1882,-59,-17925,-191,207,118,-912,12,14,11,0,100,2032,2013,46,22336,7,-50,0,,0,A,empty,,0,0,0,1785362235.156
1785362242.399,2,498,1388,-16961,-1249,-670,51,-2144,10,11,11,0,100,2055,2034,130,62393,7,-50,0,,0,A,empty,,0,0,0,1785362235.156
1785362242.423,5,1824,-786,-15678,76,-11,-125,-1328,10,9,11,0,100,2325,2303,42,20573,7,-71,0,,0,A,empty,,0,0,0,1785362235.156
1785362242.423,6,5690,13646,7244,-325,-326,-65,-880,23,12,14,0,100,1995,1979,41,19734,7,-62,0,,0,A,empty,,0,0,0,1785362235.156
1785362242.444,1,5697,14959,95,105,194,-89,-2240,12,12,11,0,100,2161,2128,142,2936,7,-57,0,,0,A,empty,,0,0,0,1785362235.156
1785362242.518,7,1272,260,-16408,244,-160,159,-2032,14,13,13,0,100,2028,2019,19,9419,7,-62,0,,0,A,empty,,0,0,0,1785362235.156
1785362242.518,4,1623,-7,-16274,325,24,232,-1840,11,11,9,0,100,2122,2099,44,21443,7,-64,0,,0,A,empty,,0,0,0,1785362235.156
1785362242.518,3,1882,-61,-17926,-191,206,118,-944,13,14,12,0,100,2031,2013,46,22337,7,-50,0,,0,A,empty,,0,0,0,1785362235.156
1785362242.518,2,494,1388,-16964,-1249,-671,51,-2128,10,11,11,0,100,2055,2034,130,62394,7,-50,0,,0,A,empty,,0,0,0,1785362235.156
1785362242.539,5,1819,-791,-15675,76,-12,-124,-1312,10,9,11,0,100,2325,2303,42,20574,7,-71,0,,0,A,empty,,0,0,0,1785362235.156
1785362242.539,6,5689,13645,7241,-325,-326,-64,-880,24,12,15,0,100,1996,1979,41,19735,7,-63,0,,0,A,empty,,0,0,0,1785362235.156
1785362242.562,1,5693,14960,96,105,193,-89,-2272,13,12,11,0,100,2160,2128,142,2937,7,-58,0,,0,A,empty,,0,0,0,1785362235.156
1785362242.635,7,1274,264,-16407,245,-160,161,-2032,13,13,13,0,100,2028,2019,19,9420,7,-62,0,,0,A,empty,,0,0,0,1785362235.156
1785362242.635,4,1628,-9,-16273,325,23,232,-1840,12,10,9,0,100,2122,2099,44,21444,7,-64,0,,0,A,empty,,0,0,0,1785362235.156
1785362242.635,3,1881,-61,-17924,-191,206,118,-944,13,14,12,0,100,2031,2013,46,22338,7,-50,0,,0,A,empty,,0,0,0,1785362235.156
1785362242.660,2,495,1391,-16965,-1249,-671,51,-2128,11,11,12,0,100,2056,2034,130,62395,7,-51,0,,0,A,empty,,0,0,0,1785362235.156
1785362242.660,5,1816,-792,-15673,77,-12,-124,-1328,10,10,11,0,100,2326,2303,42,20575,7,-72,0,,0,A,empty,,0,0,0,1785362235.156
1785362242.660,6,5691,13647,7238,-324,-327,-63,-864,22,13,14,0,100,1995,1979,41,19736,7,-63,0,,0,A,empty,,0,0,0,1785362235.156
1785362242.685,1,5696,14959,93,105,194,-89,-2224,12,12,10,0,100,2161,2128,142,2938,7,-59,0,,0,A,empty,,0,0,0,1785362235.156
1785362242.780,4,1626,-7,-16284,325,23,231,-1856,12,10,9,0,100,2122,2099,44,21445,7,-65,0,,0,A,empty,,0,0,0,1785362235.156
1785362242.780,3,1882,-64,-17923,-190,205,118,-912,13,13,11,0,100,2031,2013,46,22339,7,-49,0,,0,A,empty,,0,0,0,1785362235.156
1785362242.780,2,490,1396,-16968,-1248,-670,51,-2144,10,11,11,0,100,2055,2034,130,62396,7,-50,0,,0,A,empty,,0,0,0,1785362235.156
1785362242.780,5,1817,-792,-15673,78,-11,-124,-1328,10,11,11,0,100,2326,2303,42,20576,7,-71,0,,0,A,empty,,0,0,0,1785362235.156
1785362242.805,6,5693,13645,7234,-324,-329,-62,-912,21,13,15,0,100,1997,1979,41,19737,7,-63,0,,0,A,empty,,0,0,0,1785362235.156
1785362242.827,1,5693,14956,94,106,194,-89,-2240,12,12,10,0,100,2161,2128,142,2939,7,-59,0,,0,A,empty,,0,0,0,1785362235.156
1785362242.877,7,1280,260,-16416,244,-159,160,-2032,12,13,13,0,100,2028,2019,19,9422,7,-63,0,,0,A,empty,,0,0,0,1785362235.156
1785362242.902,4,1625,-12,-16285,325,23,230,-1840,12,10,9,0,100,2122,2099,44,21446,7,-66,0,,0,A,empty,,0,0,0,1785362235.156
1785362242.902,3,1886,-63,-17921,-190,204,117,-896,13,14,11,0,100,2030,2013,46,22340,7,-51,0,,0,A,empty,,0,0,0,1785362235.156
1785362242.902,2,489,1397,-16968,-1249,-670,52,-2144,11,11,11,0,100,2055,2034,130,62397,7,-50,0,,0,A,empty,,0,0,0,1785362235.156
1785362242.923,6,5690,13643,7230,-324,-328,-61,-896,22,13,15,0,100,1998,1979,41,19738,7,-64,0,,0,A,empty,,0,0,0,1785362235.156
1785362242.949,1,5694,14956,100,105,193,-90,-2240,12,12,10,0,100,2160,2128,142,2940,7,-58,0,,0,A,empty,,0,0,0,1785362235.156
1785362243.022,7,1282,265,-16410,244,-160,160,-2032,12,12,14,0,100,2028,2019,19,9423,7,-62,0,,0,A,empty,,0,0,0,1785362235.156
1785362243.022,4,1626,-15,-16284,325,22,230,-1872,11,10,9,0,100,2122,2099,44,21447,7,-66,0,,0,A,empty,,0,0,0,1785362235.156
1785362243.022,3,1888,-60,-17919,-189,205,117,-928,13,15,12,0,100,2031,2013,46,22341,7,-50,0,,0,A,empty,,0,0,0,1785362235.156
1785362243.022,2,492,1393,-16967,-1248,-669,52,-2144,11,11,11,0,100,2055,2034,130,62398,7,-49,0,,0,A,empty,,0,0,0,1785362235.156
1785362243.044,5,1818,-788,-15675,78,-13,-124,-1312,8,12,11,0,100,2328,2303,42,20578,7,-72,0,,0,A,empty,,0,0,0,1785362235.156
1785362243.044,6,5693,13641,7228,-324,-327,-62,-848,21,14,15,0,100,1997,1979,41,19739,7,-64,0,,0,A,empty,,0,0,0,1785362235.156
1785362243.069,1,5693,14960,104,105,193,-90,-2256,12,12,10,0,100,2161,2128,142,2941,7,-59,0,,0,A,empty,,0,0,0,1785362235.156
1785362243.138,7,1286,266,-16406,244,-159,159,-2016,11,12,13,0,100,2028,2019,19,9424,7,-63,0,,0,A,empty,,0,0,0,1785362235.156
1785362243.138,4,1629,-17,-16279,326,23,229,-1856,12,10,9,0,100,2122,2099,44,21448,7,-65,0,,0,A,empty,,0,0,0,1785362235.156
1785362243.138,3,1892,-60,-17924,-188,207,117,-928,13,15,11,0,100,2032,2013,46,22342,7,-49,0,,0,A,empty,,0,0,0,1785362235.156
1785362243.160,2,491,1392,-16965,-1248,-670,52,-2112,11,12,11,0,100,2055,2034,130,62399,7,-50,0,,0,A,empty,,0,0,0,1785362235.156
1785362243.160,5,1820,-787,-15666,77,-13,-124,-1344,9,12,11,0,100,2327,2303,42,20579,7,-72,0,,0,A,empty,,0,0,0,1785362235.156
1785362243.160,6,5691,13643,7229,-324,-327,-63,-896,17,14,14,0,100,1998,1979,41,19740,7,-63,0,,0,A,empty,,0,0,0,1785362235.156
1785362243.185,1,5696,14962,106,106,193,-91,-2272,11,12,10,0,100,2162,2128,142,2942,7,-58,0,,0,A,empty,,0,0,0,1785362235.156
1785362243.255,7,1284,267,-16406,244,-159,159,-2000,10,12,13,0,100,2028,2019,19,9425,7,-62,0,,0,A,empty,,0,0,0,1785362235.156
1785362243.277,4,1628,-21,-16285,326,24,229,-1872,12,11,9,0,100,2122,2099,44,21449,7,-65,0,,0,A,empty,,0,0,0,1785362235.156
1785362243.277,3,1892,-63,-17927,-188,206,117,-928,13,16,12,0,100,2032,2013,46,22343,7,-49,0,,0,A,empty,,0,0,0,1785362235.156
1785362243.277,2,488,1397,-16968,-1247,-669,53,-2096,11,12,11,0,100,2055,2034,130,62400,7,-50,0,,0,A,empty,,0,0,0,1785362235.156
1785362243.277,5,1822,-787,-15666,77,-13,-124,-1296,8,12,10,0,100,2324,2303,42,20580,7,-72,0,,0,A,empty,,0,0,0,1785362235.156
1785362243.302,6,5688,13645,7232,-324,-328,-63,-880,16,14,14,0,100,1997,1979,41,19741,7,-62,0,,0,A,empty,,0,0,0,1785362235.156
1785362243.323,1,5692,14961,108,106,193,-90,-2256,12,12,10,0,100,2161,2128,142,2943,7,-59,0,,0,A,empty,,0,0,0,1785362235.156
1785362243.392,7,1283,267,-16409,244,-158,160,-2032,10,13,13,0,100,2028,2019,19,9426,7,-62,0,,0,A,empty,,0,0,0,1785362235.156
1785362243.392,4,1631,-21,-16289,326,24,229,-1856,11,10,10,0,100,2122,2099,44,21450,7,-65,0,,0,A,empty,,0,0,0,1785362235.156
1785362243.393,3,1894,-66,-17928,-187,206,117,-928,13,16,11,0,100,2030,2013,46,22344,7,-50,0,,0,A,empty,,0,0,0,1785362235.156
1785362243.418,2,486,1394,-16963,-1248,-671,53,-2112,11,12,11,0,100,2055,2034,130,62401,7,-50,0,,0,A,empty,,0,0,0,1785362235.156
1785362243.418,5,1821,-787,-15666,78,-13,-123,-1344,8,12,10,0,100,2329,2303,42,20581,7,-71,0,,0,A,empty,,0,0,0,1785362235.156
1785362243.418,6,5688,13643,7232,-325,-327,-63,-896,15,14,14,0,100,1997,1979,41,19742,7,-64,0,,0,A,empty,,0,0,0,1785362235.156
1785362243.440,1,5693,14959,105,106,193,-90,-2240,11,12,10,0,100,2162,2128,142,2944,7,-58,0,,0,A,empty,,0,0,0,1785362235.156
1785362243.510,7,1285,266,-16411,243,-158,159,-2048,11,13,13,0,100,2028,2019,19,9427,7,-62,0,,0,A,empty,,0,0,0,1785362235.156
1785362243.535,3,1893,-64,-17926,-188,206,117,-928,14,16,11,0,100,2030,2013,46,22345,7,-50,0,,0,A,empty,,0,0,0,1785362235.156
1785362243.535,2,484,1393,-16961,-1249,-670,54,-2128,11,11,11,0,100,2055,2034,130,62402,7,-50,0,,0,A,empty,,0,0,0,1785362235.156
1785362243.535,5,1822,-785,-15672,77,-14,-123,-1312,9,12,10,0,100,2327,2303,42,20582,7,-71,0,,0,A,empty,,0,0,0,1785362235.156
1785362243.560,6,5689,13639,7234,-326,-327,-64,-864,14,14,14,0,100,1997,1979,41,19743,7,-63,0,,0,A,empty,,0,0,0,1785362235.156
1785362243.635,7,1281,264,-16409,242,-158,158,-2032,11,13,13,0,100,2028,2019,19,9428,7,-62,0,,0,A,empty,,0,0,0,1785362235.156
1785362243.635,4,1626,-17,-16282,325,24,230,-1856,11,11,11,0,100,2121,2099,44,21452,7,-65,0,,0,A,empty,,0,0,0,1785362235.156
1785362243.635,3,1894,-63,-17920,-187,206,116,-928,15,16,12,0,100,2030,2013,46,22346,7,-50,0,,0,A,empty,,0,0,0,1785362235.156
1785362243.657,2,484,1394,-16955,-1249,-670,54,-2176,11,12,11,0,100,2055,2034,130,62403,7,-50,0,,0,A,empty,,0,0,0,1785362235.156
1785362243.657,5,1821,-786,-15672,78,-13,-123,-1344,9,12,9,0,100,2326,2303,42,20583,7,-70,0,,0,A,empty,,0,0,0,1785362235.156
1785362243.679,6,5684,13640,7234,-325,-327,-64,-880,13,13,14,0,100,1997,1979,41,19744,7,-63,0,,0,A,empty,,0,0,0,1785362235.156
1785362243.701,1,5693,14961,112,106,193,-90,-2256,11,13,10,0,100,2162,2128,142,2946,7,-59,0,,0,A,empty,,0,0,0,1785362235.156
1785362243.773,7,1284,270,-16401,242,-158,159,-2048,11,13,12,0,100,2028,2019,19,9429,7,-62,0,,0,A,empty,,0,0,0,1785362235.156
1785362243.773,4,1630,-16,-16276,325,24,230,-1840,11,10,11,0,100,2121,2099,44,21453,7,-65,0,,0,A,empty,,0,0,0,1785362235.156
1785362243.773,3,1895,-62,-17915,-187,206,116,-896,14,16,12,0,100,2031,2013,46,22347,7,-50,0,,0,A,empty,,0,0,0,1785362235.156
1785362243.773,2,485,1393,-16954,-1249,-669,55,-2128,11,12,11,0,100,2056,2034,130,62404,7,-50,0,,0,A,empty,,0,0,0,1785362235.156
1785362243.798,6,5682,13640,7235,-325,-326,-66,-864,15,13,13,0,100,1995,1979,41,19745,7,-64,0,,0,A,empty,,0,0,0,1785362235.156
1785362243.821,1,5695,14964,110,105,193,-90,-2240,11,13,9,0,100,2163,2128,142,2947,7,-59,0,,0,A,empty,,0,0,0,1785362235.156
1785362243.893,7,1283,271,-16396,242,-159,158,-2032,12,12,11,0,100,2028,2019,19,9430,7,-63,0,,0,A,empty,,0,0,0,1785362235.156
1785362243.894,4,1631,-16,-16274,324,25,231,-1856,11,10,11,0,100,2122,2099,44,21454,7,-66,0,,0,A,empty,,0,0,0,1785362235.156
1785362243.894,3,1890,-59,-17913,-187,208,116,-896,14,16,12,0,100,2030,2013,46,22348,7,-50,0,,0,A,empty,,0,0,0,1785362235.156
1785362243.919,5,1822,-783,-15674,78,-13,-122,-1328,9,12,9,0,100,2328,2303,42,20585,7,-71,0,,0,A,empty,,0,0,0,1785362235.156
1785362243.919,6,5682,13639,7243,-325,-326,-66,-912,16,13,13,0,100,1995,1979,41,19746,7,-63,0,,0,A,empty,,0,0,0,1785362235.156
1785362243.944,1,5694,14963,107,106,193,-90,-2256,11,13,10,0,100,2162,2128,142,2948,7,-58,0,,0,A,empty,,0,0,0,1785362235.156
1785362244.017,7,1287,267,-16402,242,-158,159,-2016,12,13,11,0,100,2028,2019,19,9431,7,-62,0,,0,A,empty,,0,0,0,1785362235.156
1785362244.017,4,1631,-11,-16274,323,25,232,-1856,11,10,11,0,100,2122,2099,44,21455,7,-65,0,,0,A,empty,,0,0,0,1785362235.156
1785362244.017,3,1891,-63,-17911,-187,207,117,-928,14,16,12,0,100,2031,2013,46,22349,7,-50,0,,0,A,empty,,0,0,0,1785362235.156
1785362244.017,2,486,1392,-16955,-1248,-670,54,-2112,10,12,12,0,100,2057,2034,130,62406,7,-50,0,,0,A,empty,,0,0,0,1785362235.156
1785362244.039,5,1819,-783,-15675,77,-12,-123,-1328,9,12,9,0,100,2327,2303,42,20586,7,-72,0,,0,A,empty,,0,0,0,1785362235.156
1785362244.039,6,5676,13637,7250,-325,-326,-65,-880,20,13,13,0,100,1996,1979,41,19747,7,-63,0,,0,A,empty,,0,0,0,1785362235.156
1785362244.062,1,5697,14957,105,106,193,-90,-2272,11,13,10,0,100,2161,2128,142,2949,7,-58,0,,0,A,empty,,0,0,0,1785362235.156
1785362244.130,7,1281,270,-16403,242,-159,159,-2016,13,12,11,0,100,2028,2019,19,9432,7,-63,0,,0,A,empty,,0,0,0,1785362235.156
1785362244.151,3,1887,-62,-17908,-188,206,117,-896,14,16,12,0,100,2032,2013,46,22350,7,-50,0,,0,A,empty,,0,0,0,1785362235.156
1785362244.151,2,484,1391,-16960,-1249,-669,54,-2096,10,11,12,0,100,2055,2034,130,62407,7,-49,0,,0,A,empty,,0,0,0,1785362235.156
1785362244.175,6,5675,13636,7256,-325,-325,-64,-880,21,13,13,0,100,1998,1979,41,19748,7,-63,0,,0,A,empty,,0,0,0,1785362235.156
1785362244.201,1,5698,14957,101,106,193,-89,-2256,12,13,10,0,100,2162,2128,142,2950,7,-59,0,,0,A,empty,,0,0,0,1785362235.156
1785362244.271,7,1278,269,-16403,243,-158,159,-2032,13,12,11,0,100,2027,2019,19,9433,7,-62,0,,0,A,empty,,0,0,0,1785362235.156
1785362244.271,4,1630,-12,-16273,322,24,232,-1856,10,10,11,0,100,2122,2099,44,21457,7,-65,0,,0,A,empty,,0,0,0,1785362235.156
1785362244.271,3,1887,-60,-17904,-188,207,117,-896,14,14,12,0,100,2031,2013,46,22351,7,-50,0,,0,A,empty,,0,0,0,1785362235.156
1785362244.271,2,488,1391,-16961,-1249,-670,54,-2112,9,11,11,0,100,2056,2034,130,62408,7,-49,0,,0,A,empty,,0,0,0,1785362235.156
1785362244.293,5,1819,-780,-15680,78,-12,-124,-1344,10,11,10,0,100,2326,2303,42,20588,7,-71,0,,0,A,empty,,0,0,0,1785362235.156
1785362244.294,6,5674,13635,7252,-325,-325,-63,-912,23,13,13,0,100,1997,1979,41,19749,7,-64,0,,0,A,empty,,0,0,0,1785362235.156
1785362244.319,1,5702,14955,96,106,194,-90,-2240,11,13,10,0,100,2161,2128,142,2951,7,-58,0,,0,A,empty,,0,0,0,1785362235.156
1785362244.393,7,1276,271,-16392,243,-158,158,-2048,14,13,12,0,100,2028,2019,19,9434,7,-63,0,,0,A,empty,,0,0,0,1785362235.156
1785362244.393,4,1630,-13,-16272,321,24,231,-1856,10,10,11,0,100,2122,2099,44,21458,7,-65,0,,0,A,empty,,0,0,0,1785362235.156
1785362244.393,3,1890,-63,-17905,-190,206,118,-928,13,15,12,0,100,2031,2013,46,22352,7,-49,0,,0,A,empty,,0,0,0,1785362235.156
1785362244.415,2,488,1394,-16957,-1249,-670,54,-2144,9,12,11,0,100,2055,2034,130,62409,7,-50,0,,0,A,empty,,0,0,0,1785362235.156
1785362244.415,5,1823,-777,-15680,77,-12,-123,-1312,11,11,10,0,100,2326,2303,42,20589,7,-72,0,,0,A,empty,,0,0,0,1785362235.156
1785362244.415,6,5675,13634,7256,-325,-325,-64,-880,24,13,13,0,100,1996,1979,41,19750,7,-63,0,,0,A,empty,,0,0,0,1785362235.156
1785362244.439,1,5700,14958,100,105,194,-90,-2256,12,13,10,0,100,2161,2128,142,2952,7,-58,0,,0,A,empty,,0,0,0,1785362235.156
1785362244.510,7,1276,273,-16389,245,-159,159,-2016,14,13,12,0,100,2028,2019,19,9435,7,-63,0,,0,A,empty,,0,0,0,1785362235.156
1785362244.510,4,1630,-11,-16274,322,24,231,-1840,11,11,11,0,100,2122,2099,44,21459,7,-65,0,,0,A,empty,,0,0,0,1785362235.156
1785362244.531,3,1888,-65,-17902,-190,206,119,-928,12,15,12,0,100,2032,2013,46,22353,7,-50,0,,0,A,empty,,0,0,0,1785362235.156
1785362244.531,2,489,1390,-16963,-1248,-670,54,-2128,9,11,11,0,100,2056,2034,130,62410,7,-50,0,,0,A,empty,,0,0,0,1785362235.156
1785362244.531,5,1820,-777,-15676,77,-11,-123,-1328,11,10,10,0,100,2327,2303,42,20590,7,-72,0,,0,A,empty,,0,0,0,1785362235.156
1785362244.557,6,5672,13635,7255,-324,-324,-63,-912,25,13,13,0,100,1997,1979,41,19751,7,-63,0,,0,A,empty,,0,0,0,1785362235.156
1785362244.577,1,5703,14958,95,105,193,-90,-2208,12,13,10,0,100,2161,2128,142,2953,7,-58,0,,0,A,empty,,0,0,0,1785362235.156
1785362244.652,7,1277,279,-16396,245,-159,160,-2000,13,12,12,0,100,2028,2019,19,9436,7,-63,0,,0,A,empty,,0,0,0,1785362235.156
1785362244.652,4,1632,-10,-16279,323,23,231,-1840,11,10,10,0,100,2122,2099,44,21460,7,-65,0,,0,A,empty,,0,0,0,1785362235.156
1785362244.652,3,1886,-66,-17905,-190,207,119,-928,12,15,12,0,100,2032,2013,46,22354,7,-51,0,,0,A,empty,,0,0,0,1785362235.156
1785362244.652,2,486,1385,-16964,-1247,-670,53,-2112,9,11,11,0,100,2056,2034,130,62411,7,-50,0,,0,A,empty,,0,0,0,1785362235.156
1785362244.673,6,5676,13629,7260,-325,-324,-64,-864,25,13,13,0,100,1997,1979,41,19752,7,-62,0,,0,A,empty,,0,0,0,1785362235.156
1785362244.694,1,5702,14959,91,105,193,-90,-2256,11,13,10,0,100,2162,2128,142,2954,7,-58,0,,0,A,empty,,0,0,0,1785362235.156
1785362244.761,7,1276,273,-16394,246,-159,160,-2016,14,12,12,0,100,2028,2019,19,9437,7,-63,0,,0,A,empty,,0,0,0,1785362235.156
1785362244.761,4,1630,-12,-16278,323,23,231,-1856,11,10,11,0,100,2122,2099,44,21461,7,-65,0,,0,A,empty,,0,0,0,1785362235.156
1785362244.785,3,1880,-66,-17905,-191,207,119,-928,12,15,11,0,100,2031,2013,46,22355,7,-50,0,,0,A,empty,,0,0,0,1785362235.156
1785362244.785,2,488,1384,-16960,-1248,-671,54,-2160,10,11,11,0,100,2056,2034,130,62412,7,-50,0,,0,A,empty,,0,0,0,1785362235.156
1785362244.785,5,1819,-785,-15678,76,-12,-124,-1296,11,10,11,0,100,2325,2303,42,20592,7,-73,0,,0,A,empty,,0,0,0,1785362235.156
1785362244.805,6,5679,13631,7256,-325,-325,-64,-848,27,13,14,0,100,1998,1979,41,19753,7,-62,0,,0,A,empty,,0,0,0,1785362235.156
1785362244.827,1,5702,14956,92,105,192,-90,-2240,11,13,10,0,100,2161,2128,142,2955,7,-58,0,,0,A,empty,,0,0,0,1785362235.156
1785362244.876,7,1274,273,-16400,247,-158,159,-2032,13,12,13,0,100,2028,2019,19,9438,7,-63,0,,0,A,empty,,0,0,0,1785362235.156
1785362244.901,4,1629,-5,-16281,324,23,230,-1824,11,10,12,0,100,2122,2099,44,21462,7,-64,0,,0,A,empty,,0,0,0,1785362235.156
1785362244.901,3,1884,-68,-17914,-190,207,120,-896,12,14,11,0,100,2030,2013,46,22356,7,-49,0,,0,A,empty,,0,0,0,1785362235.156
1785362244.901,2,488,1379,-16965,-1247,-671,55,-2144,9,12,11,0,100,2056,2034,130,62413,7,-50,0,,0,A,empty,,0,0,0,1785362235.156
1785362244.927,6,5678,13635,7251,-324,-327,-63,-896,26,13,13,0,100,1997,1979,41,19754,7,-63,0,,0,A,empty,,0,0,0,1785362235.156
1785362244.952,1,5696,14957,92,104,192,-90,-2240,11,13,9,0,100,2162,2128,142,2956,7,-58,0,,0,A,empty,,0,0,0,1785362235.156
1785362245.027,7,1270,271,-16399,246,-158,158,-2000,13,11,13,0,100,2028,2019,19,9439,7,-62,0,,0,A,empty,,0,0,0,1785362235.156
1785362245.027,4,1626,-9,-16277,325,22,230,-1808,11,11,11,0,100,2122,2099,44,21463,7,-66,0,,0,A,empty,,0,0,0,1785362235.156
1785362245.027,3,1883,-68,-17915,-191,206,120,-896,12,14,12,0,100,2030,2013,46,22357,7,-50,0,,0,A,empty,,0,0,0,1785362235.156
1785362245.027,2,490,1382,-16962,-1248,-671,55,-2128,10,11,10,0,100,2055,2034,130,62414,7,-50,0,,0,A,empty,,0,0,0,1785362235.156
1785362245.027,5,1828,-781,-15670,75,-12,-124,-1296,11,10,10,0,100,2326,2303,42,20594,7,-74,0,,0,A,empty,,0,0,0,1785362235.156
1785362245.052,6,5680,13640,7246,-324,-326,-63,-912,23,13,12,0,100,1997,1979,41,19755,7,-62,0,,0,A,empty,,0,0,0,1785362235.156
1785362245.077,1,5694,14959,93,104,192,-90,-2240,10,13,9,0,100,2162,2128,142,2957,7,-58,0,,0,A,empty,,0,0,0,1785362235.156
1785362245.127,7,1272,268,-16399,246,-158,158,-2016,13,11,13,0,100,2028,2019,19,9440,7,-63,0,,0,A,empty,,0,0,0,1785362235.156
1785362245.152,4,1624,-9,-16277,326,24,229,-1856,11,11,11,0,100,2122,2099,44,21464,7,-65,0,,0,A,empty,,0,0,0,1785362235.156
1785362245.152,3,1884,-69,-17915,-190,206,119,-912,13,13,12,0,100,2031,2013,46,22358,7,-50,0,,0,A,empty,,0,0,0,1785362235.156
1785362245.152,2,492,1384,-16959,-1248,-671,56,-2112,10,10,11,0,100,2056,2034,130,62415,7,-50,0,,0,A,empty,,0,0,0,1785362235.156
1785362245.177,6,5682,13640,7242,-323,-326,-64,-864,23,13,13,0,100,1998,1979,41,19756,7,-62,0,,0,A,empty,,0,0,0,1785362235.156
1785362245.202,1,5694,14959,93,105,192,-90,-2272,10,12,9,0,100,2161,2128,142,2958,7,-58,0,,0,A,empty,,0,0,0,1785362235.156
1785362245.275,7,1274,273,-16398,246,-158,157,-2016,13,12,13,0,100,2028,2019,19,9441,7,-63,0,,0,A,empty,,0,0,0,1785362235.156
1785362245.275,4,1628,-4,-16276,326,24,230,-1856,10,11,12,0,100,2122,2099,44,21465,7,-65,0,,0,A,empty,,0,0,0,1785362235.156
1785362245.275,3,1881,-68,-17918,-190,207,118,-880,13,14,13,0,100,2031,2013,46,22359,7,-50,0,,0,A,empty,,0,0,0,1785362235.156
1785362245.275,2,490,1380,-16960,-1249,-671,55,-2128,10,10,11,0,100,2056,2034,130,62416,7,-50,0,,0,A,empty,,0,0,0,1785362235.156
1785362245.276,5,1827,-787,-15661,74,-13,-124,-1312,11,11,10,0,100,2327,2303,42,20596,7,-74,0,,0,A,empty,,0,0,0,1785362235.156
1785362245.301,6,5682,13638,7242,-323,-327,-64,-912,24,13,14,0,100,1997,1979,41,19757,7,-62,0,,0,A,empty,,0,0,0,1785362235.156
1785362245.326,1,5692,14964,94,105,192,-91,-2256,10,12,9,0,100,2161,2128,142,2959,7,-58,0,,0,A,empty,,0,0,0,1785362235.156
1785362245.401,4,1625,-9,-16271,327,23,231,-1872,10,11,12,0,100,2122,2099,44,21466,7,-65,0,,0,A,empty,,0,0,0,1785362235.156
1785362245.401,3,1881,-64,-17919,-190,207,118,-912,13,13,12,0,100,2031,2013,46,22360,7,-49,0,,0,A,empty,,0,0,0,1785362235.156
1785362245.401,2,489,1380,-16963,-1248,-671,56,-2128,10,10,11,0,100,2055,2034,130,62417,7,-49,0,,0,A,empty,,0,0,0,1785362235.156
1785362245.426,6,5681,13639,7238,-322,-327,-63,-864,24,13,13,0,100,1998,1979,41,19758,7,-62,0,,0,A,empty,,0,0,0,1785362235.156
1785362245.451,1,5690,14963,88,105,193,-90,-2256,10,13,9,0,100,2162,2128,142,2960,7,-58,0,,0,A,empty,,0,0,0,1785362235.156
1785362245.523,7,1277,264,-16398,246,-158,157,-2048,12,12,13,0,100,2028,2019,19,9443,7,-62,0,,0,A,empty,,0,0,0,1785362235.156
1785362245.523,4,1626,-12,-16270,326,23,231,-1872,11,11,11,0,100,2122,2099,44,21467,7,-65,0,,0,A,empty,,0,0,0,1785362235.156
1785362245.523,3,1882,-63,-17927,-190,208,118,-912,13,14,12,0,100,2031,2013,46,22361,7,-50,0,,0,A,empty,,0,0,0,1785362235.156
1785362245.523,2,488,1383,-16961,-1248,-671,55,-2144,10,10,11,0,100,2055,2034,130,62418,7,-50,0,,0,A,empty,,0,0,0,1785362235.156
1785362245.546,6,5680,13642,7235,-323,-327,-64,-896,24,12,13,0,100,1995,1979,41,19759,7,-62,0,,0,A,empty,,0,0,0,1785362235.156
1785362245.571,1,5691,14968,96,105,194,-89,-2272,10,13,9,0,100,2162,2128,142,2961,7,-59,0,,0,A,empty,,0,0,0,1785362235.156
1785362245.643,7,1279,258,-16395,244,-158,155,-2048,13,13,12,0,100,2028,2019,19,9444,7,-62,0,,0,A,empty,,0,0,0,1785362235.156
1785362245.643,4,1623,-16,-16269,325,24,230,-1856,10,11,11,0,100,2122,2099,44,21468,7,-65,0,,0,A,empty,,0,0,0,1785362235.156
1785362245.643,3,1885,-62,-17924,-191,207,118,-864,13,14,11,0,100,2031,2013,46,22362,7,-50,0,,0,A,empty,,0,0,0,1785362235.156
1785362245.669,5,1830,-783,-15656,76,-13,-124,-1312,12,11,11,0,100,2333,2303,42,20599,7,-74,0,,0,A,empty,,0,0,0,1785362235.156
1785362245.669,6,5679,13648,7231,-322,-328,-63,-896,26,13,14,0,100,1995,1979,41,19760,7,-62,0,,0,A,empty,,0,0,0,1785362235.156
1785362245.694,1,5689,14966,99,105,193,-89,-2240,10,13,10,0,100,2163,2128,142,2962,7,-58,0,,0,A,empty,,0,0,0,1785362235.156
1785362245.768,7,1279,263,-16399,243,-158,155,-2000,13,13,12,0,100,2027,2019,19,9445,7,-63,0,,0,A,empty,,0,0,0,1785362235.156
1785362245.768,4,1626,-14,-16269,325,24,231,-1840,10,11,11,0,100,2121,2099,44,21469,7,-65,0,,0,A,empty,,0,0,0,1785362235.156
1785362245.768,3,1887,-62,-17929,-190,208,118,-928,12,15,12,0,100,2032,2013,46,22363,7,-50,0,,0,A,empty,,0,0,0,1785362235.156
1785362245.768,2,488,1389,-16965,-1249,-671,55,-2112,10,10,10,0,100,2055,2034,130,62420,7,-49,0,,0,A,empty,,0,0,0,1785362235.156
1785362245.792,5,1833,-782,-15652,76,-13,-124,-1344,12,11,11,0,100,2326,2303,42,20600,7,-74,0,,0,A,empty,,0,0,0,1785362235.156
1785362245.792,6,5676,13646,7229,-322,-327,-61,-896,24,13,13,0,100,1996,1979,41,19761,7,-62,0,,0,A,empty,,0,0,0,1785362235.156
1785362245.818,1,5686,14968,94,106,194,-89,-2256,10,14,11,0,100,2162,2128,142,2963,7,-58,0,,0,A,empty,,0,0,0,1785362235.156
1785362245.889,7,1280,263,-16394,242,-158,156,-2032,14,14,12,0,100,2028,2019,19,9446,7,-62,0,,0,A,empty,,0,0,0,1785362235.156
1785362245.889,4,1628,-18,-16262,324,23,230,-1840,10,11,11,0,100,2122,2099,44,21470,7,-64,0,,0,A,empty,,0,0,0,1785362235.156
1785362245.889,3,1888,-62,-17919,-189,208,117,-928,13,15,11,0,100,2032,2013,46,22364,7,-50,0,,0,A,empty,,0,0,0,1785362235.156
1785362245.914,2,487,1390,-16966,-1249,-671,55,-2112,10,9,11,0,100,2055,2034,130,62421,7,-49,0,,0,A,empty,,0,0,0,1785362235.156
1785362245.914,5,1834,-783,-15653,77,-12,-125,-1312,12,11,11,0,100,2326,2303,42,20601,7,-72,0,,0,A,empty,,0,0,0,1785362235.156
1785362245.914,6,5675,13643,7228,-322,-326,-62,-880,24,13,13,0,100,1997,1979,41,19762,7,-62,0,,0,A,empty,,0,0,0,1785362235.156
1785362245.937,1,5693,14971,90,106,194,-89,-2224,10,13,11,0,100,2162,2128,142,2964,7,-59,0,,0,A,empty,,0,0,0,1785362235.156
1785362246.009,7,1280,262,-16395,244,-158,157,-2016,14,14,12,0,100,2028,2019,19,9447,7,-63,0,,0,A,empty,,0,0,0,1785362235.156
1785362246.034,3,1888,-60,-17922,-189,208,116,-896,13,15,11,0,100,2031,2013,46,22365,7,-49,0,,0,A,empty,,0,0,0,1785362235.156
1785362246.034,2,488,1391,-16968,-1249,-670,54,-2144,10,10,11,0,100,2055,2034,130,62422,7,-50,0,,0,A,empty,,0,0,0,1785362235.156
1785362246.034,5,1829,-784,-15653,76,-13,-124,-1312,12,11,11,0,100,2329,2303,42,20602,7,-73,0,,0,A,empty,,0,0,0,1785362235.156
1785362246.054,6,5674,13642,7224,-324,-327,-62,-896,24,13,13,0,100,1997,1979,41,19763,7,-62,0,,0,A,empty,,0,0,0,1785362235.156
1785362246.078,1,5694,14972,87,106,194,-89,-2240,10,13,11,0,100,2161,2128,142,2965,7,-59,0,,0,A,empty,,0,0,0,1785362235.156
1785362246.152,4,1631,-14,-16262,325,24,230,-1824,10,10,11,0,100,2122,2099,44,21472,7,-65,0,,0,A,empty,,0,0,0,1785362235.156
1785362246.152,3,1887,-60,-17919,-189,208,117,-944,13,14,11,0,100,2032,2013,46,22366,7,-49,0,,0,A,empty,,0,0,0,1785362235.156
1785362246.152,2,482,1387,-16967,-1248,-671,53,-2144,10,10,10,0,100,2055,2034,130,62423,7,-50,0,,0,A,empty,,0,0,0,1785362235.156
1785362246.177,6,5674,13643,7225,-324,-327,-62,-880,23,13,12,0,100,1998,1979,41,19764,7,-63,0,,0,A,empty,,0,0,0,1785362235.156
1785362246.202,1,5691,14975,88,105,195,-89,-2240,10,14,10,0,100,2162,2128,142,2966,7,-59,0,,0,A,empty,,0,0,0,1785362235.156
1785362246.276,7,1286,259,-16398,243,-159,157,-2048,13,15,11,0,100,2028,2019,19,9449,7,-63,0,,0,A,empty,,0,0,0,1785362235.156
1785362246.276,4,1631,-17,-16262,325,23,229,-1840,10,11,11,0,100,2121,2099,44,21473,7,-65,0,,0,A,empty,,0,0,0,1785362235.156
1785362246.276,3,1890,-63,-17914,-190,207,118,-912,13,14,10,0,100,2032,2013,46,22367,7,-50,0,,0,A,empty,,0,0,0,1785362235.156
1785362246.276,2,480,1388,-16966,-1248,-671,53,-2112,10,10,10,0,100,2055,2034,130,62424,7,-50,0,,0,A,empty,,0,0,0,1785362235.156
1785362246.276,5,1832,-782,-15658,77,-13,-122,-1344,11,11,11,0,100,2327,2303,42,20604,7,-73,0,,0,A,empty,,0,0,0,1785362235.156
1785362246.301,6,5675,13643,7222,-324,-327,-61,-880,22,13,12,0,100,1997,1979,41,19765,7,-63,0,,0,A,empty,,0,0,0,1785362235.156
1785362246.323,1,5691,14968,93,105,196,-89,-2240,11,14,11,0,100,2161,2128,142,2967,7,-59,0,,0,A,empty,,0,0,0,1785362235.156
1785362246.395,7,1287,263,-16398,243,-159,157,-2048,14,14,11,0,100,2027,2019,19,9450,7,-63,0,,0,A,empty,,0,0,0,1785362235.156
1785362246.395,4,1632,-13,-16260,324,23,229,-1840,10,11,11,0,100,2121,2099,44,21474,7,-64,0,,0,A,empty,,0,0,0,1785362235.156
1785362246.395,3,1886,-68,-17914,-190,207,118,-928,12,14,11,0,100,2032,2013,46,22368,7,-50,0,,0,A,empty,,0,0,0,1785362235.156
1785362246.419,5,1835,-777,-15664,77,-12,-123,-1312,11,11,10,0,100,2326,2303,42,20605,7,-72,0,,0,A,empty,,0,0,0,1785362235.156
1785362246.419,6,5674,13642,7225,-325,-325,-60,-880,23,13,13,0,100,1996,1979,41,19766,7,-63,0,,0,A,empty,,0,0,0,1785362235.156
1785362246.443,1,5692,14972,91,106,195,-89,-2240,10,14,11,0,100,2161,2128,142,2968,7,-59,0,,0,A,empty,,0,0,0,1785362235.156
1785362246.519,7,1287,264,-16404,242,-159,157,-2032,14,14,12,0,100,2028,2019,19,9451,7,-63,0,,0,A,empty,,0,0,0,1785362235.156
1785362246.519,4,1631,-12,-16262,324,24,230,-1888,11,10,11,0,100,2121,2099,44,21475,7,-63,0,,0,A,empty,,0,0,0,1785362235.156
1785362246.519,3,1887,-70,-17908,-189,205,119,-928,12,14,11,0,100,2031,2013,46,22369,7,-50,0,,0,A,empty,,0,0,0,1785362235.156
1785362246.519,2,481,1390,-16970,-1249,-670,52,-2128,10,10,11,0,100,2056,2034,130,62426,7,-50,0,,0,A,empty,,0,0,0,1785362235.156
1785362246.539,5,1834,-783,-15663,77,-12,-123,-1328,11,11,10,0,100,2327,2303,42,20606,7,-73,0,,0,A,empty,,0,0,0,1785362235.156
1785362246.539,6,5675,13644,7225,-324,-325,-61,-880,25,13,13,0,100,1998,1979,41,19767,7,-62,0,,0,A,empty,,0,0,0,1785362235.156
1785362246.564,1,5690,14968,87,105,194,-89,-2256,10,14,11,0,100,2162,2128,142,2969,7,-59,0,,0,A,empty,,0,0,0,1785362235.156
1785362246.637,7,1282,265,-16406,243,-159,157,-2032,14,13,12,0,100,2028,2019,19,9452,7,-62,0,,0,A,empty,,0,0,0,1785362235.156
1785362246.637,4,1633,-10,-16261,324,23,230,-1840,11,10,11,0,100,2121,2099,44,21476,7,-64,0,,0,A,empty,,0,0,0,1785362235.156
1785362246.637,3,1888,-70,-17917,-189,206,117,-928,13,14,11,0,100,2032,2013,46,22370,7,-49,0,,0,A,empty,,0,0,0,1785362235.156
1785362246.662,2,483,1393,-16975,-1248,-670,53,-2112,10,10,11,0,100,2057,2034,130,62427,7,-50,0,,0,A,empty,,0,0,0,1785362235.156
1785362246.662,5,1828,-790,-15661,76,-13,-123,-1328,9,11,10,0,100,2329,2303,42,20607,7,-72,0,,0,A,empty,,0,0,0,1785362235.156
1785362246.662,6,5674,13643,7223,-324,-325,-62,-864,22,13,13,0,100,1998,1979,41,19768,7,-62,0,,0,A,empty,,0,0,0,1785362235.156
1785362246.688,1,5693,14968,88,105,196,-89,-2256,11,13,10,0,100,2161,2128,142,2970,7,-59,0,,0,A,empty,,0,0,0,1785362235.156
1785362246.757,7,1280,267,-16414,244,-159,157,-2016,13,14,13,0,100,2028,2019,19,9453,7,-63,0,,0,A,empty,,0,0,0,1785362235.156
1785362246.779,4,1632,-9,-16267,325,23,230,-1856,12,10,11,0,100,2122,2099,44,21477,7,-65,0,,0,A,empty,,0,0,0,1785362235.156
1785362246.779,3,1887,-68,-17917,-190,206,118,-896,13,14,11,0,100,2031,2013,46,22371,7,-49,0,,0,A,empty,,0,0,0,1785362235.156
1785362246.779,2,482,1387,-16980,-1249,-670,52,-2128,10,10,11,0,100,2055,2034,130,62428,7,-50,0,,0,A,empty,,0,0,0,1785362235.156
1785362246.779,5,1827,-786,-15666,76,-12,-122,-1360,9,11,10,0,100,2325,2303,42,20608,7,-72,0,,0,A,empty,,0,0,0,1785362235.156
1785362246.804,6,5676,13642,7232,-323,-325,-62,-864,21,12,14,0,100,1997,1979,41,19769,7,-62,0,,0,A,empty,,0,0,0,1785362235.156
1785362246.827,1,5697,14963,91,104,195,-89,-2240,11,13,10,0,100,2162,2128,142,2971,7,-59,0,,0,A,empty,,0,0,0,1785362235.156
1785362246.899,4,1626,-9,-16272,325,24,231,-1856,12,10,11,0,100,2121,2099,44,21478,7,-65,0,,0,A,empty,,0,0,0,1785362235.156
1785362246.899,3,1885,-65,-17923,-192,206,119,-880,12,14,11,0,100,2031,2013,46,22372,7,-51,0,,0,A,empty,,0,0,0,1785362235.156
1785362246.899,2,482,1389,-16977,-1249,-670,53,-2144,10,11,11,0,100,2055,2034,130,62429,7,-50,0,,0,A,empty,,0,0,0,1785362235.156
1785362246.923,5,1827,-786,-15667,76,-11,-123,-1344,9,11,10,0,100,2328,2303,42,20609,7,-72,0,,0,A,empty,,0,0,0,1785362235.156
1785362246.923,6,5679,13644,7231,-323,-325,-61,-880,22,12,16,0,100,1998,1979,41,19770,7,-62,0,,0,A,empty,,0,0,0,1785362235.156
1785362246.949,1,5695,14959,92,103,195,-88,-2240,12,13,10,0,100,2162,2128,142,2972,7,-59,0,,0,A,empty,,0,0,0,1785362235.156
1785362247.018,7,1281,269,-16418,244,-159,158,-2016,12,13,13,0,100,2028,2019,19,9455,7,-63,0,,0,A,empty,,0,0,0,1785362235.156
1785362247.019,4,1627,-5,-16275,325,23,231,-1840,12,11,11,0,100,2121,2099,44,21479,7,-65,0,,0,A,empty,,0,0,0,1785362235.156
1785362247.019,3,1882,-65,-17920,-192,206,119,-912,13,15,11,0,100,2032,2013,46,22373,7,-50,0,,0,A,empty,,0,0,0,1785362235.156
1785362247.019,2,482,1386,-16976,-1250,-670,52,-2128,10,10,11,0,100,2055,2034,130,62430,7,-50,0,,0,A,empty,,0,0,0,1785362235.156
1785362247.043,5,1827,-786,-15672,76,-11,-124,-1312,10,11,10,0,100,2329,2303,42,20610,7,-72,0,,0,A,empty,,0,0,0,1785362235.156
1785362247.043,6,5683,13641,7232,-322,-324,-61,-912,22,12,16,0,100,1997,1979,41,19771,7,-62,0,,0,A,empty,,0,0,0,1785362235.156
1785362247.069,1,5694,14960,91,104,195,-88,-2272,12,13,11,0,100,2161,2128,142,2973,7,-59,0,,0,A,empty,,0,0,0,1785362235.156
1785362247.140,7,1283,272,-16414,243,-158,158,-2016,13,12,14,0,100,2028,2019,19,9456,7,-62,0,,0,A,empty,,0,0,0,1785362235.156
1785362247.140,4,1628,-7,-16281,325,22,232,-1856,12,10,10,0,100,2122,2099,44,21480,7,-64,0,,0,A,empty,,0,0,0,1785362235.156
1785362247.140,3,1880,-65,-17922,-192,206,118,-928,13,15,12,0,100,2031,2013,46,22374,7,-50,0,,0,A,empty,,0,0,0,1785362235.156
1785362247.163,2,483,1386,-16977,-1250,-670,52,-2112,10,10,11,0,100,2056,2034,130,62431,7,-50,0,,0,A,empty,,0,0,0,1785362235.156
1785362247.163,5,1829,-784,-15670,76,-10,-124,-1312,10,11,10,0,100,2328,2303,42,20611,7,-72,0,,0,A,empty,,0,0,0,1785362235.156
1785362247.163,6,5684,13645,7230,-321,-323,-62,-880,23,13,16,0,100,1996,1979,41,19772,7,-63,0,,0,A,empty,,0,0,0,1785362235.156
1785362247.188,1,5695,14957,92,103,194,-88,-2256,12,13,10,0,100,2161,2128,142,2974,7,-59,0,,0,A,empty,,0,0,0,1785362235.156
1785362247.260,7,1281,270,-16418,244,-159,160,-2032,14,13,14,0,100,2028,2019,19,9457,7,-62,0,,0,A,empty,,0,0,0,1785362235.156
1785362247.285,3,1878,-66,-17934,-191,206,118,-928,13,15,11,0,100,2031,2013,46,22375,7,-50,0,,0,A,empty,,0,0,0,1785362235.156
1785362247.285,2,487,1387,-16974,-1250,-670,52,-2128,10,10,11,0,100,2056,2034,130,62432,7,-50,0,,0,A,empty,,0,0,0,1785362235.156
1785362247.285,5,1821,-786,-15674,76,-10,-124,-1344,10,12,10,0,100,2328,2303,42,20612,7,-72,0,,0,A,empty,,0,0,0,1785362235.156
1785362247.310,6,5687,13649,7238,-322,-322,-62,-880,23,13,16,0,100,1998,1979,41,19773,7,-62,0,,0,A,empty,,0,0,0,1785362235.156
1785362247.380,7,1281,268,-16419,245,-159,160,-2048,14,13,14,0,100,2028,2019,19,9458,7,-63,0,,0,A,empty,,0,0,0,1785362235.156
1785362247.380,4,1629,-9,-16285,324,22,232,-1856,12,10,10,0,100,2122,2099,44,21482,7,-64,0,,0,A,empty,,0,0,0,1785362235.156
1785362247.404,3,1877,-65,-17937,-192,207,117,-928,13,16,12,0,100,2031,2013,46,22376,7,-50,0,,0,A,empty,,0,0,0,1785362235.156
1785362247.404,2,485,1384,-16972,-1249,-671,53,-2144,10,10,11,0,100,2056,2034,130,62433,7,-50,0,,0,A,empty,,0,0,0,1785362235.156
1785362247.404,5,1824,-788,-15672,77,-11,-125,-1328,11,11,10,0,100,2327,2303,42,20613,7,-72,0,,0,A,empty,,0,0,0,1785362235.156
1785362247.426,6,5687,13650,7234,-321,-324,-63,-864,23,14,15,0,100,1998,1979,41,19774,7,-62,0,,0,A,empty,,0,0,0,1785362235.156
1785362247.451,1,5693,14962,96,103,193,-88,-2272,11,13,11,0,100,2162,2128,142,2976,7,-59,0,,0,A,empty,,0,0,0,1785362235.156
1785362247.523,7,1281,267,-16414,245,-160,161,-2032,13,13,14,0,100,2028,2019,19,9459,7,-62,0,,0,A,empty,,0,0,0,1785362235.156
1785362247.523,4,1633,-11,-16287,325,22,232,-1872,11,11,10,0,100,2121,2099,44,21483,7,-64,0,,0,A,empty,,0,0,0,1785362235.156
1785362247.523,3,1878,-62,-17936,-191,208,117,-896,13,14,11,0,100,2032,2013,46,22377,7,-50,0,,0,A,empty,,0,0,0,1785362235.156
1785362247.523,2,484,1385,-16967,-1249,-671,54,-2128,11,11,11,0,100,2057,2034,130,62434,7,-49,0,,0,A,empty,,0,0,0,1785362235.156
1785362247.548,6,5687,13648,7242,-322,-324,-62,-880,23,14,16,0,100,1997,1979,41,19775,7,-62,0,,0,A,empty,,0,0,0,1785362235.156
1785362247.571,1,5697,14961,95,104,194,-88,-2240,11,13,11,0,100,2161,2128,142,2977,7,-59,0,,0,A,empty,,0,0,0,1785362235.156
1785362247.640,7,1284,265,-16404,245,-160,160,-2032,13,13,14,0,100,2028,2019,19,9460,7,-62,0,,0,A,empty,,0,0,0,1785362235.156
1785362247.640,4,1633,-11,-16289,326,22,232,-1824,11,11,9,0,100,2122,2099,44,21484,7,-64,0,,0,A,empty,,0,0,0,1785362235.156
1785362247.640,3,1876,-63,-17935,-191,208,117,-880,12,13,12,0,100,2031,2013,46,22378,7,-49,0,,0,A,empty,,0,0,0,1785362235.156
1785362247.661,2,483,1382,-16969,-1250,-672,52,-2144,10,10,11,0,100,2057,2034,130,62435,7,-50,0,,0,A,empty,,0,0,0,1785362235.156
1785362247.661,5,1826,-782,-15675,78,-9,-125,-1344,11,11,10,0,100,2329,2303,42,20615,7,-71,0,,0,A,empty,,0,0,0,1785362235.156
1785362247.662,6,5682,13646,7249,-322,-324,-62,-880,23,14,15,0,100,1998,1979,41,19776,7,-62,0,,0,A,empty,,0,0,0,1785362235.156
1785362247.684,1,5699,14959,90,105,194,-89,-2256,11,13,10,0,100,2162,2128,142,2978,7,-59,0,,0,A,empty,,0,0,0,1785362235.156
1785362247.779,4,1628,-14,-16284,324,22,232,-1824,10,12,9,0,100,2122,2099,44,21485,7,-64,0,,0,A,empty,,0,0,0,1785362235.156
1785362247.779,3,1877,-63,-17933,-191,207,117,-944,12,13,11,0,100,2031,2013,46,22379,7,-50,0,,0,A,empty,,0,0,0,1785362235.156
1785362247.779,2,482,1381,-16967,-1249,-672,52,-2128,10,11,11,0,100,2057,2034,130,62436,7,-50,0,,0,A,empty,,0,0,0,1785362235.156
1785362247.779,5,1826,-786,-15673,78,-9,-125,-1344,10,11,10,0,100,2328,2303,42,20616,7,-71,0,,0,A,empty,,0,0,0,1785362235.156
1785362247.804,6,5679,13645,7245,-323,-324,-62,-864,23,14,15,0,100,1995,1979,41,19777,7,-63,0,,0,A,empty,,0,0,0,1785362235.156
1785362247.827,1,5696,14963,92,105,195,-89,-2224,11,13,11,0,100,2161,2128,142,2979,7,-59,0,,0,A,empty,,0,0,0,1785362235.156
1785362247.877,7,1285,258,-16406,244,-160,160,-2032,14,13,14,0,100,2028,2019,19,9462,7,-63,0,,0,A,empty,,0,0,0,1785362235.156
1785362247.902,4,1630,-14,-16281,324,21,232,-1840,10,12,9,0,100,2122,2099,44,21486,7,-65,0,,0,A,empty,,0,0,0,1785362235.156
1785362247.902,3,1876,-70,-17933,-189,206,116,-912,12,13,11,0,100,2032,2013,46,22380,7,-49,0,,0,A,empty,,0,0,0,1785362235.156
1785362247.902,2,480,1384,-16970,-1249,-672,52,-2128,10,11,11,0,100,2057,2034,130,62437,7,-50,0,,0,A,empty,,0,0,0,1785362235.156
1785362247.927,6,5678,13647,7242,-323,-326,-63,-880,21,15,13,0,100,1995,1979,41,19778,7,-62,0,,0,A,empty,,0,0,0,1785362235.156
1785362247.950,1,5697,14963,94,106,195,-89,-2256,10,13,10,0,100,2162,2128,142,2980,7,-59,0,,0,A,empty,,0,0,0,1785362235.156
1785362248.021,7,1286,261,-16404,243,-160,159,-2016,14,13,13,0,100,2028,2019,19,9463,7,-62,0,,0,A,empty,,0,0,0,1785362235.156
1785362248.021,4,1628,-18,-16281,324,22,232,-1824,10,12,10,0,100,2122,2099,44,21487,7,-65,0,,0,A,empty,,0,0,0,1785362235.156
1785362248.021,3,1880,-68,-17934,-189,206,116,-944,12,11,12,0,100,2032,2013,46,22381,7,-50,0,,0,A,empty,,0,0,0,1785362235.156
1785362248.021,2,478,1384,-16971,-1249,-672,53,-2096,10,11,11,0,100,2058,2034,130,62438,7,-50,0,,0,A,empty,,0,0,0,1785362235.156
1785362248.046,5,1826,-789,-15673,77,-10,-125,-1296,10,11,11,0,100,2325,2303,42,20618,7,-71,0,,0,A,empty,,0,0,0,1785362235.156
1785362248.046,6,5676,13648,7244,-324,-326,-62,-880,21,15,14,0,100,1997,1979,41,19779,7,-62,0,,0,A,empty,,0,0,0,1785362235.156
1785362248.071,1,5699,14960,96,106,195,-89,-2240,11,13,10,0,100,2162,2128,142,2981,7,-59,0,,0,A,empty,,0,0,0,1785362235.156
1785362248.143,7,1286,255,-16396,244,-160,159,-2048,13,13,13,0,100,2028,2019,19,9464,7,-62,0,,0,A,empty,,0,0,0,1785362235.156
1785362248.143,4,1623,-19,-16279,324,22,232,-1856,11,11,11,0,100,2122,2099,44,21488,7,-64,0,,0,A,empty,,0,0,0,1785362235.156
1785362248.143,3,1882,-68,-17937,-190,206,116,-960,12,12,12,0,100,2032,2013,46,22382,7,-49,0,,0,A,empty,,0,0,0,1785362235.156
1785362248.168,2,476,1384,-16964,-1248,-672,53,-2128,10,11,11,0,100,2057,2034,130,62439,7,-50,0,,0,A,empty,,0,0,0,1785362235.156
1785362248.168,5,1827,-791,-15677,77,-10,-124,-1312,10,11,11,0,100,2327,2303,42,20619,7,-71,0,,0,A,empty,,0,0,0,1785362235.156
1785362248.168,6,5672,13645,7248,-325,-327,-62,-896,21,14,14,0,100,1997,1979,41,19780,7,-62,0,,0,A,empty,,0,0,0,1785362235.156
1785362248.191,1,5703,14960,98,106,195,-90,-2208,11,12,10,0,100,2163,2128,142,2982,7,-59,0,,0,A,empty,,0,0,0,1785362235.156
1785362248.266,7,1284,257,-16392,242,-160,158,-2032,12,13,13,0,100,2028,2019,19,9465,7,-62,0,,0,A,empty,,0,0,0,1785362235.156
1785362248.266,4,1619,-15,-16280,324,23,232,-1872,11,12,10,0,100,2122,2099,44,21489,7,-65,0,,0,A,empty,,0,0,0,1785362235.156
1785362248.266,3,1883,-66,-17932,-189,206,115,-928,12,12,12,0,100,2032,2013,46,22383,7,-50,0,,0,A,empty,,0,0,0,1785362235.156
1785362248.289,5,1832,-795,-15671,77,-11,-124,-1344,10,11,11,0,100,2325,2303,42,20620,7,-71,0,,0,A,empty,,0,0,0,1785362235.156
1785362248.289,6,5670,13642,7246,-325,-328,-63,-880,19,13,14,0,100,1998,1979,41,19781,7,-62,0,,0,A,empty,,0,0,0,1785362235.156
1785362248.314,1,5704,14959,103,106,195,-89,-2240,11,11,10,0,100,2162,2128,142,2983,7,-59,0,,0,A,empty,,0,0,0,1785362235.156
1785362248.385,7,1284,258,-16392,242,-160,158,-2032,12,13,13,0,100,2028,2019,19,9466,7,-63,0,,0,A,empty,,0,0,0,1785362235.156
1785362248.385,4,1617,-13,-16281,324,23,231,-1856,11,11,10,0,100,2121,2099,44,21490,7,-64,0,,0,A,empty,,0,0,0,1785362235.156
1785362248.385,3,1885,-66,-17931,-189,206,116,-928,12,12,12,0,100,2032,2013,46,22384,7,-49,0,,0,A,empty,,0,0,0,1785362235.156
1785362248.410,2,481,1382,-16966,-1250,-672,54,-2160,9,12,11,0,100,2057,2034,130,62441,7,-49,0,,0,A,empty,,0,0,0,1785362235.156
1785362248.410,5,1826,-795,-15674,76,-11,-124,-1344,11,10,11,0,100,2332,2303,42,20621,7,-71,0,,0,A,empty,,0,0,0,1785362235.156
1785362248.435,1,5706,14959,104,106,194,-89,-2272,11,11,10,0,100,2162,2128,142,2984,7,-59,0,,0,A,empty,,0,0,0,1785362235.156
1785362248.510,7,1287,259,-16395,243,-160,158,-2048,13,13,13,0,100,2028,2019,19,9467,7,-63,0,,0,A,empty,,0,0,0,1785362235.156
1785362248.510,4,1613,-17,-16276,323,24,231,-1840,11,10,10,0,100,2121,2099,44,21491,7,-65,0,,0,A,empty,,0,0,0,1785362235.156
1785362248.535,3,1883,-64,-17933,-188,206,115,-928,12,12,12,0,100,2032,2013,46,22385,7,-49,0,,0,A,empty,,0,0,0,1785362235.156
1785362248.535,2,478,1381,-16971,-1249,-672,54,-2112,9,12,11,0,100,2057,2034,130,62442,7,-50,0,,0,A,empty,,0,0,0,1785362235.156
1785362248.535,5,1827,-794,-15670,76,-13,-124,-1296,11,11,11,0,100,2326,2303,42,20622,7,-71,0,,0,A,empty,,0,0,0,1785362235.156
1785362248.560,6,5674,13638,7231,-323,-326,-64,-864,21,13,14,0,100,1997,1979,41,19783,7,-62,0,,0,A,empty,,0,0,0,1785362235.156
1785362248.634,7,1289,261,-16402,242,-160,157,-2032,13,13,13,0,100,2028,2019,19,9468,7,-63,0,,0,A,empty,,0,0,0,1785362235.156
1785362248.634,4,1612,-17,-16274,322,24,231,-1840,10,10,10,0,100,2121,2099,44,21492,7,-64,0,,0,A,empty,,0,0,0,1785362235.156
1785362248.659,2,478,1384,-16964,-1250,-672,54,-2096,9,12,11,0,100,2057,2034,130,62443,7,-50,0,,0,A,empty,,0,0,0,1785362235.156
1785362248.659,5,1828,-792,-15670,76,-12,-123,-1344,11,11,10,0,100,2329,2303,42,20623,7,-71,0,,0,A,empty,,0,0,0,1785362235.156
1785362248.659,6,5680,13637,7232,-322,-326,-64,-848,25,13,14,0,100,1995,1979,41,19784,7,-63,0,,0,A,empty,,0,0,0,1785362235.156
1785362248.684,1,5695,14960,105,105,192,-88,-2272,12,12,10,0,100,2162,2128,142,2986,7,-59,0,,0,A,empty,,0,0,0,1785362235.156
1785362248.759,7,1288,260,-16398,242,-160,158,-2000,13,13,13,0,100,2028,2019,19,9469,7,-63,0,,0,A,empty,,0,0,0,1785362235.156
1785362248.784,3,1884,-59,-17935,-189,206,118,-944,13,12,13,0,100,2032,2013,46,22387,7,-49,0,,0,A,empty,,0,0,0,1785362235.156
1785362248.784,2,477,1388,-16960,-1250,-671,54,-2128,9,11,12,0,100,2057,2034,130,62444,7,-49,0,,0,A,empty,,0,0,0,1785362235.156
1785362248.784,5,1830,-789,-15671,76,-12,-123,-1312,11,11,10,0,100,2328,2303,42,20624,7,-71,0,,0,A,empty,,0,0,0,1785362235.156
1785362248.809,6,5682,13640,7237,-322,-324,-65,-848,29,13,16,0,100,1998,1979,41,19785,7,-62,0,,0,A,empty,,0,0,0,1785362235.156
1785362248.877,7,1287,259,-16394,242,-159,158,-2032,13,13,13,0,100,2028,2019,19,9470,7,-62,0,,0,A,empty,,0,0,0,1785362235.156
1785362248.902,4,1612,-16,-16278,321,25,230,-1808,10,9,10,0,100,2121,2099,44,21494,7,-64,0,,0,A,empty,,0,0,0,1785362235.156
1785362248.902,3,1885,-54,-17938,-190,207,118,-944,12,13,13,0,100,2032,2013,46,22388,7,-49,0,,0,A,empty,,0,0,0,1785362235.156
1785362248.902,2,479,1387,-16962,-1250,-671,52,-2128,9,11,12,0,100,2057,2034,130,62445,7,-50,0,,0,A,empty,,0,0,0,1785362235.156
1785362248.927,6,5684,13639,7238,-322,-323,-64,-880,30,13,16,0,100,1998,1979,41,19786,7,-62,0,,0,A,empty,,0,0,0,1785362235.156
1785362248.952,1,5696,14962,113,105,191,-89,-2224,11,12,11,0,100,2163,2128,142,2988,7,-59,0,,0,A,empty,,0,0,0,1785362235.156
1785362249.017,7,1289,250,-16389,242,-159,158,-2016,13,13,13,0,100,2028,2019,19,9471,7,-62,0,,0,A,empty,,0,0,0,1785362235.156
1785362249.018,4,1616,-16,-16277,320,24,231,-1840,10,9,10,0,100,2121,2099,44,21495,7,-65,0,,0,A,empty,,0,0,0,1785362235.156
1785362249.018,3,1884,-58,-17941,-190,208,118,-912,12,14,13,0,100,2031,2013,46,22389,7,-50,0,,0,A,empty,,0,0,0,1785362235.156
1785362249.018,2,479,1389,-16962,-1251,-671,53,-2112,9,11,12,0,100,2057,2034,130,62446,7,-50,0,,0,A,empty,,0,0,0,1785362235.156
1785362249.043,5,1830,-790,-15665,76,-13,-123,-1328,11,12,10,0,100,2330,2303,42,20626,7,-71,0,,0,A,empty,,0,0,0,1785362235.156
1785362249.043,6,5686,13639,7235,-321,-324,-65,-864,29,14,15,0,100,1997,1979,41,19787,7,-63,0,,0,A,empty,,0,0,0,1785362235.156
1785362249.068,1,5694,14963,117,105,192,-90,-2256,11,12,12,0,100,2162,2128,142,2989,7,-59,0,,0,A,empty,,0,0,0,1785362235.156
1785362249.135,7,1284,253,-16395,242,-160,157,-2032,13,13,14,0,100,2028,2019,19,9472,7,-62,0,,0,A,empty,,0,0,0,1785362235.156
1785362249.135,4,1620,-14,-16276,321,24,232,-1856,11,9,9,0,100,2122,2099,44,21496,7,-64,0,,0,A,empty,,0,0,0,1785362235.156
1785362249.135,3,1887,-58,-17939,-190,207,118,-912,13,14,12,0,100,2032,2013,46,22390,7,-50,0,,0,A,empty,,0,0,0,1785362235.156
1785362249.160,2,483,1390,-16971,-1251,-670,53,-2128,9,11,12,0,100,2057,2034,130,62447,7,-50,0,,0,A,empty,,0,0,0,1785362235.156
1785362249.160,5,1828,-790,-15660,76,-12,-123,-1328,10,13,10,0,100,2325,2303,42,20627,7,-71,0,,0,A,empty,,0,0,0,1785362235.156
1785362249.160,6,5687,13637,7232,-320,-323,-65,-880,29,14,16,0,100,1998,1979,41,19788,7,-62,0,,0,A,empty,,0,0,0,1785362235.156
1785362249.185,1,5689,14962,115,105,192,-89,-2240,10,13,12,0,100,2162,2128,142,2990,7,-59,0,,0,A,empty,,0,0,0,1785362235.156
1785362249.260,7,1283,253,-16395,243,-160,157,-2048,13,13,14,0,100,2028,2019,19,9473,7,-63,0,,0,A,empty,,0,0,0,1785362235.156
1785362249.285,3,1884,-58,-17936,-190,207,119,-896,13,14,12,0,100,2032,2013,46,22391,7,-49,0,,0,A,empty,,0,0,0,1785362235.156
1785362249.285,2,478,1392,-16972,-1251,-669,52,-2144,10,11,12,0,100,2057,2034,130,62448,7,-51,0,,0,A,empty,,0,0,0,1785362235.156
1785362249.285,5,1825,-784,-15662,75,-12,-124,-1296,10,13,10,0,100,2328,2303,42,20628,7,-70,0,,0,A,empty,,0,0,0,1785362235.156
1785362249.309,6,5684,13639,7231,-320,-323,-65,-896,30,14,16,0,100,1997,1979,41,19789,7,-62,0,,0,A,empty,,0,0,0,1785362235.156
1785362249.384,7,1283,256,-16398,243,-159,156,-2032,13,13,14,0,100,2028,2019,19,9474,7,-63,0,,0,A,empty,,0,0,0,1785362235.156
1785362249.384,4,1625,-19,-16277,323,23,232,-1840,11,9,10,0,100,2122,2099,44,21498,7,-64,0,,0,A,empty,,0,0,0,1785362235.156
1785362249.405,2,479,1387,-16972,-1250,-670,52,-2144,11,12,12,0,100,2057,2034,130,62449,7,-49,0,,0,A,empty,,0,0,0,1785362235.156
1785362249.405,5,1824,-786,-15656,76,-12,-124,-1312,10,13,10,0,100,2326,2303,42,20629,7,-71,0,,0,A,empty,,0,0,0,1785362235.156
1785362249.426,6,5680,13640,7236,-321,-323,-64,-864,31,14,16,0,100,1997,1979,41,19790,7,-63,0,,0,A,empty,,0,0,0,1785362235.156
1785362249.451,1,5684,14960,102,105,192,-89,-2272,9,12,12,0,100,2162,2128,142,2992,7,-59,0,,0,A,empty,,0,0,0,1785362235.156
1785362249.524,7,1275,254,-16399,244,-159,156,-2016,13,13,14,0,100,2028,2019,19,9475,7,-62,0,,0,A,empty,,0,0,0,1785362235.156
1785362249.524,4,1626,-19,-16281,323,23,231,-1856,11,9,10,0,100,2122,2099,44,21499,7,-64,0,,0,A,empty,,0,0,0,1785362235.156
1785362249.524,3,1884,-60,-17938,-191,209,118,-944,12,15,12,0,100,2032,2013,46,22393,7,-50,0,,0,A,empty,,0,0,0,1785362235.156
1785362249.524,2,485,1383,-16968,-1250,-670,52,-2144,10,12,12,0,100,2057,2034,130,62450,7,-49,0,,0,A,empty,,0,0,0,1785362235.156
1785362249.524,5,1824,-787,-15660,76,-11,-125,-1312,10,13,10,0,100,2325,2303,42,20630,7,-72,0,,0,A,empty,,0,0,0,1785362235.156
1785362249.549,6,5681,13642,7241,-321,-323,-63,-864,28,14,16,0,100,1998,1979,41,19791,7,-62,0,,0,A,empty,,0,0,0,1785362235.156
1785362249.572,1,5686,14957,106,106,192,-88,-2240,9,13,12,0,100,2163,2128,142,2993,7,-59,0,,0,A,empty,,0,0,0,1785362235.156
1785362249.643,7,1273,253,-16392,244,-158,158,-2032,13,13,13,0,100,2028,2019,19,9476,7,-63,0,,0,A,empty,,0,0,0,1785362235.156
1785362249.643,4,1629,-15,-16281,324,22,231,-1840,12,10,10,0,100,2122,2099,44,21500,7,-64,0,,0,A,empty,,0,0,0,1785362235.156
1785362249.643,3,1884,-59,-17940,-192,208,118,-960,12,16,12,0,100,2032,2013,46,22394,7,-49,0,,0,A,empty,,0,0,0,1785362235.156
1785362249.667,2,486,1382,-16968,-1250,-670,52,-2112,10,12,12,0,100,2057,2034,130,62451,7,-49,0,,0,A,empty,,0,0,0,1785362235.156
1785362249.667,5,1820,-785,-15662,76,-12,-125,-1328,9,13,10,0,100,2326,2303,42,20631,7,-72,0,,0,A,empty,,0,0,0,1785362235.156
1785362249.667,6,5679,13645,7244,-321,-324,-62,-880,25,14,16,0,100,1998,1979,41,19792,7,-63,0,,0,A,empty,,0,0,0,1785362235.156
1785362249.689,1,5687,14957,106,106,193,-89,-2272,10,12,13,0,100,2164,2128,142,2994,7,-59,0,,0,A,empty,,0,0,0,1785362235.156
1785362249.762,7,1272,256,-16391,244,-159,158,-2048,12,13,13,0,100,2028,2019,19,9477,7,-62,0,,0,A,empty,,0,0,0,1785362235.156
1785362249.762,4,1632,-19,-16279,325,21,231,-1840,11,10,10,0,100,2122,2099,44,21501,7,-64,0,,0,A,empty,,0,0,0,1785362235.156
1785362249.787,2,490,1383,-16970,-1250,-670,53,-2128,10,12,11,0,100,2057,2034,130,62452,7,-50,0,,0,A,empty,,0,0,0,1785362235.156
1785362249.787,5,1813,-786,-15661,76,-11,-125,-1328,9,13,10,0,100,2326,2303,43,20632,7,-73,0,,0,A,empty,,0,0,0,1785362235.156
1785362249.788,6,5681,13641,7242,-321,-325,-63,-912,20,13,15,0,100,1998,1979,41,19793,7,-62,0,,0,A,empty,,0,0,0,1785362235.156
1785362249.884,7,1268,256,-16392,245,-160,158,-2048,12,13,13,0,100,2027,2019,19,9478,7,-62,0,,0,A,empty,,0,0,0,1785362235.156
1785362249.884,4,1630,-19,-16279,325,21,232,-1856,11,10,10,0,100,2122,2099,44,21502,7,-64,0,,0,A,empty,,0,0,0,1785362235.156
1785362249.909,2,489,1381,-16972,-1250,-671,54,-2112,10,12,11,0,100,2056,2034,130,62453,7,-50,0,,0,A,empty,,0,0,0,1785362235.156
1785362249.909,5,1809,-786,-15667,76,-11,-125,-1344,9,13,11,0,100,2328,2303,43,20633,7,-73,0,,0,A,empty,,0,0,0,1785362235.156
1785362249.909,6,5679,13643,7237,-321,-325,-63,-864,19,12,14,0,100,1997,1979,41,19794,7,-63,0,,0,A,empty,,0,0,0,1785362235.156
1785362249.934,1,5693,14955,101,104,193,-87,-2256,10,12,12,0,100,2162,2128,142,2996,7,-58,0,,0,A,empty,,0,0,0,1785362235.156
1785362250.009,7,1265,265,-16397,246,-159,158,-2032,12,13,13,0,100,2027,2019,19,9479,7,-63,0,,0,A,empty,,0,0,0,1785362235.156
1785362250.034,3,1885,-63,-17939,-191,208,117,-912,14,16,11,0,100,2032,2013,46,22397,7,-49,0,,0,A,empty,,0,0,0,1785362235.156
1785362250.034,2,490,1378,-16970,-1249,-671,54,-2128,10,12,10,0,100,2055,2034,130,62454,7,-50,0,,0,A,empty,,0,0,0,1785362235.156
1785362250.034,5,1809,-787,-15664,76,-10,-124,-1312,10,13,11,0,100,2328,2303,43,20634,7,-73,0,,0,A,empty,,0,0,0,1785362235.156
1785362250.057,6,5676,13643,7234,-321,-324,-63,-896,20,13,14,0,100,1997,1979,41,19795,7,-63,0,,0,A,empty,,0,0,0,1785362235.156
1785362250.082,1,5694,14956,95,105,192,-87,-2240,10,12,11,0,100,2162,2128,142,2997,7,-58,0,,0,A,empty,,0,0,0,1785362235.156
1785362250.127,7,1266,262,-16398,245,-158,158,-2016,12,13,13,0,100,2028,2019,19,9480,7,-62,0,,0,A,empty,,0,0,0,1785362235.156
1785362250.152,4,1620,-21,-16285,325,22,231,-1856,11,10,9,0,100,2122,2099,44,21504,7,-65,0,,0,A,empty,,0,0,0,1785362235.156
1785362250.152,3,1883,-59,-17933,-192,209,118,-944,14,15,11,0,100,2032,2013,46,22398,7,-49,0,,0,A,empty,,0,0,0,1785362235.156
1785362250.152,2,489,1380,-16970,-1249,-672,54,-2128,10,12,10,0,100,2054,2034,130,62455,7,-50,0,,0,A,empty,,0,0,0,1785362235.156
1785362250.177,6,5677,13641,7235,-323,-325,-63,-912,21,13,15,0,100,1996,1979,41,19796,7,-63,0,,0,A,empty,,0,0,0,1785362235.156
1785362250.202,1,5692,14957,96,104,193,-86,-2240,11,12,10,0,100,2162,2128,142,2998,7,-58,0,,0,A,empty,,0,0,0,1785362235.156
1785362250.277,7,1269,261,-16407,246,-158,159,-2032,12,12,13,0,100,2028,2019,19,9481,7,-62,0,,0,A,empty,,0,0,0,1785362235.156
1785362250.277,4,1617,-20,-16286,324,21,231,-1856,11,10,9,0,100,2122,2099,44,21505,7,-65,0,,0,A,empty,,0,0,0,1785362235.156
1785362250.277,3,1887,-59,-17932,-191,209,117,-912,14,16,11,0,100,2031,2013,46,22399,7,-50,0,,0,A,empty,,0,0,0,1785362235.156
1785362250.277,2,489,1382,-16968,-1249,-672,55,-2128,10,11,11,0,100,2055,2034,130,62456,7,-50,0,,0,A,empty,,0,0,0,1785362235.156
1785362250.277,5,1809,-785,-15674,76,-10,-125,-1312,10,11,12,0,100,2326,2303,43,20636,7,-72,0,,0,A,empty,,0,0,0,1785362235.156
1785362250.302,6,5682,13640,7232,-322,-326,-62,-864,20,13,15,0,100,1997,1979,41,19797,7,-63,0,,0,A,empty,,0,0,0,1785362235.156
1785362250.327,1,5692,14954,95,103,193,-86,-2256,11,13,10,0,100,2162,2128,142,2999,7,-58,0,,0,A,empty,,0,0,0,1785362235.156
1785362250.377,7,1267,256,-16404,246,-159,160,-2032,12,12,13,0,100,2027,2019,19,9482,7,-62,0,,0,A,empty,,0,0,0,1785362235.156
1785362250.402,4,1615,-26,-16291,324,21,231,-1872,12,10,9,0,100,2121,2099,44,21506,7,-65,0,,0,A,empty,,0,0,0,1785362235.156
1785362250.402,3,1889,-60,-17923,-192,207,117,-944,14,16,11,0,100,2031,2013,46,22400,7,-49,0,,0,A,empty,,0,0,0,1785362235.156
1785362250.402,2,487,1381,-16968,-1249,-671,55,-2128,9,11,9,0,100,2055,2034,130,62457,7,-50,0,,0,A,empty,,0,0,0,1785362235.156
1785362250.427,5,1809,-782,-15678,76,-9,-124,-1296,10,11,11,0,100,2329,2303,43,20637,7,-72,0,,0,A,empty,,0,0,0,1785362235.156
1785362250.427,6,5682,13642,7231,-323,-326,-63,-880,19,13,14,0,100,1997,1979,41,19798,7,-64,0,,0,A,empty,,0,0,0,1785362235.156
1785362250.452,1,5696,14951,104,102,194,-88,-2256,12,13,11,0,100,2162,2128,142,3000,7,-58,0,,0,A,empty,,0,0,0,1785362235.156
1785362250.526,7,1270,259,-16401,245,-159,160,-2048,12,12,13,0,100,2028,2019,19,9483,7,-63,0,,0,A,empty,,0,0,0,1785362235.156
1785362250.526,4,1615,-19,-16289,323,20,232,-1856,11,10,9,0,100,2121,2099,44,21507,7,-65,0,,0,A,empty,,0,0,0,1785362235.156
1785362250.526,3,1886,-60,-17918,-192,207,118,-912,14,15,11,0,100,2032,2013,46,22401,7,-49,0,,0,A,empty,,0,0,0,1785362235.156
1785362250.526,2,484,1385,-16970,-1248,-671,54,-2144,10,11,10,0,100,2056,2034,130,62458,7,-50,0,,0,A,empty,,0,0,0,1785362235.156
1785362250.526,5,1811,-778,-15670,75,-9,-124,-1344,10,10,11,0,100,2327,2303,43,20638,7,-72,0,,0,A,empty,,0,0,0,1785362235.156
1785362250.551,6,5682,13644,7228,-322,-327,-64,-848,19,13,14,0,100,1997,1979,41,19799,7,-63,0,,0,A,empty,,0,0,0,1785362235.156
1785362250.577,1,5698,14953,105,102,193,-88,-2272,12,12,11,0,100,2162,2128,142,3001,7,-58,0,,0,A,empty,,0,0,0,1785362235.156
1785362250.643,7,1270,260,-16405,245,-160,160,-2032,12,12,13,0,100,2028,2019,19,9484,7,-62,0,,0,A,empty,,0,0,0,1785362235.156
1785362250.643,4,1616,-23,-16286,323,20,232,-1872,11,11,10,0,100,2120,2099,44,21508,7,-65,0,,0,A,empty,,0,0,0,1785362235.156
1785362250.643,3,1891,-61,-17916,-192,206,118,-912,14,15,11,0,100,2032,2013,46,22402,7,-50,0,,0,A,empty,,0,0,0,1785362235.156
1785362250.667,2,482,1388,-16971,-1248,-672,54,-2144,11,11,10,0,100,2056,2034,130,62459,7,-50,0,,0,A,empty,,0,0,0,1785362235.156
1785362250.667,5,1813,-785,-15675,76,-9,-125,-1312,10,10,11,0,100,2327,2303,43,20639,7,-73,0,,0,A,empty,,0,0,0,1785362235.156
1785362250.667,6,5680,13643,7220,-323,-327,-65,-896,20,13,13,0,100,1997,1979,41,19800,7,-63,0,,0,A,empty,,0,0,0,1785362235.156
1785362250.692,1,5700,14957,113,102,194,-89,-2240,12,12,11,0,100,2162,2128,142,3002,7,-58,0,,0,A,empty,,0,0,0,1785362235.156
1785362250.767,7,1269,259,-16399,244,-159,159,-2064,13,12,13,0,100,2028,2019,19,9485,7,-62,0,,0,A,empty,,0,0,0,1785362235.156
1785362250.767,4,1614,-19,-16287,323,20,231,-1840,11,11,9,0,100,2120,2099,44,21509,7,-65,0,,0,A,empty,,0,0,0,1785362235.156
1785362250.767,3,1886,-60,-17909,-192,206,120,-912,14,14,11,0,100,2030,2013,46,22403,7,-49,0,,0,A,empty,,0,0,0,1785362235.156
1785362250.767,2,482,1384,-16976,-1248,-672,54,-2160,10,11,10,0,100,2056,2034,130,62460,7,-50,0,,0,A,empty,,0,0,0,1785362235.156
1785362250.793,5,1819,-786,-15676,75,-10,-124,-1312,10,10,11,0,100,2329,2303,43,20640,7,-74,0,,0,A,empty,,0,0,0,1785362235.156
1785362250.793,6,5676,13647,7216,-323,-327,-65,-896,20,14,13,0,100,1994,1979,41,19801,7,-63,0,,0,A,empty,,0,0,0,1785362235.156
1785362250.817,1,5693,14960,116,101,194,-89,-2256,12,13,11,0,100,2162,2128,142,3003,7,-58,0,,0,A,empty,,0,0,0,1785362235.156
1785362250.885,7,1269,263,-16403,244,-158,158,-2016,13,12,13,0,100,2028,2019,19,9486,7,-62,0,,0,A,empty,,0,0,0,1785362235.156
1785362250.885,4,1617,-18,-16287,322,20,231,-1856,10,11,10,0,100,2122,2099,44,21510,7,-65,0,,0,A,empty,,0,0,0,1785362235.156
1785362250.885,3,1889,-58,-17911,-192,206,120,-960,14,14,12,0,100,2029,2013,46,22404,7,-50,0,,0,A,empty,,0,0,0,1785362235.156
1785362250.909,2,482,1383,-16970,-1247,-671,54,-2128,11,11,11,0,100,2056,2034,130,62461,7,-50,0,,0,A,empty,,0,0,0,1785362235.156
1785362250.909,5,1819,-782,-15671,75,-10,-124,-1296,10,10,11,0,100,2330,2303,43,20641,7,-74,0,,0,A,empty,,0,0,0,1785362235.156
1785362250.909,6,5678,13643,7225,-323,-327,-65,-880,21,14,13,0,100,1995,1979,41,19802,7,-64,0,,0,A,empty,,0,0,0,1785362235.156
1785362250.934,1,5693,14956,111,102,194,-90,-2256,12,13,11,0,100,2162,2128,142,3004,7,-58,0,,0,A,empty,,0,0,0,1785362235.156
1785362251.009,7,1266,259,-16401,244,-158,158,-2032,13,11,13,0,100,2028,2019,19,9487,7,-62,0,,0,A,empty,,0,0,0,1785362235.156
1785362251.034,3,1889,-62,-17909,-192,207,120,-944,13,14,12,0,100,2031,2013,46,22405,7,-50,0,,0,A,empty,,0,0,0,1785362235.156
1785362251.034,2,486,1383,-16972,-1247,-670,53,-2144,11,11,11,0,100,2056,2034,130,62462,7,-50,0,,0,A,empty,,0,0,0,1785362235.156
1785362251.034,5,1819,-781,-15672,75,-11,-124,-1328,9,10,10,0,100,2327,2303,43,20642,7,-74,0,,0,A,empty,,0,0,0,1785362235.156
1785362251.059,6,5681,13643,7229,-324,-328,-65,-880,21,13,13,0,100,1996,1979,41,19803,7,-63,0,,0,A,empty,,0,0,0,1785362235.156
1785362251.134,7,1267,266,-16402,244,-159,158,-2064,13,11,13,0,100,2028,2019,19,9488,7,-62,0,,0,A,empty,,0,0,0,1785362235.156
1785362251.134,4,1619,-19,-16278,322,20,231,-1840,11,12,10,0,100,2122,2099,44,21512,7,-64,0,,0,A,empty,,0,0,0,1785362235.156
1785362251.135,3,1890,-63,-17915,-191,207,121,-896,14,15,12,0,100,2032,2013,46,22406,7,-49,0,,0,A,empty,,0,0,0,1785362235.156
1785362251.159,2,489,1384,-16971,-1246,-671,54,-2176,11,11,11,0,100,2055,2034,130,62463,7,-50,0,,0,A,empty,,0,0,0,1785362235.156
1785362251.159,5,1823,-785,-15667,75,-11,-124,-1344,9,11,10,0,100,2331,2303,43,20643,7,-74,0,,0,A,empty,,0,0,0,1785362235.156
1785362251.159,6,5680,13646,7234,-323,-328,-65,-896,20,14,13,0,100,1994,1979,41,19804,7,-64,0,,0,A,empty,,0,0,0,1785362235.156
1785362251.184,1,5697,14950,111,103,194,-91,-2288,13,12,11,0,100,2162,2128,142,3006,7,-58,0,,0,A,empty,,0,0,0,1785362235.156
1785362251.259,7,1264,269,-16403,243,-159,158,-2032,12,11,12,0,100,2028,2019,19,9489,7,-62,0,,0,A,empty,,0,0,0,1785362235.156
1785362251.284,3,1887,-62,-17918,-191,208,121,-960,13,15,11,0,100,2031,2013,46,22407,7,-50,0,,0,A,empty,,0,0,0,1785362235.156
1785362251.284,2,489,1382,-16968,-1246,-671,54,-2128,11,11,11,0,100,2055,2034,130,62464,7,-50,0,,0,A,empty,,0,0,0,1785362235.156
1785362251.284,5,1821,-788,-15666,76,-11,-124,-1344,10,11,10,0,100,2329,2303,43,20644,7,-73,0,,0,A,empty,,0,0,0,1785362235.156
1785362251.306,6,5680,13648,7240,-323,-327,-66,-880,22,14,12,0,100,1993,1979,41,19805,7,-63,0,,0,A,empty,,0,0,0,1785362235.156
1785362251.331,1,5700,14952,110,103,194,-91,-2240,13,12,11,0,100,2162,2128,142,3007,7,-58,0,,0,A,empty,,0,0,0,1785362235.156
1785362251.377,7,1266,270,-16402,243,-159,158,-2032,12,12,12,0,100,2028,2019,19,9490,7,-62,0,,0,A,empty,,0,0,0,1785362235.156
1785362251.401,4,1625,-13,-16274,322,21,230,-1872,10,11,9,0,100,2121,2099,44,21514,7,-64,0,,0,A,empty,,0,0,0,1785362235.156
1785362251.401,3,1887,-64,-17921,-190,208,120,-928,13,14,11,0,100,2031,2013,46,22408,7,-50,0,,0,A,empty,,0,0,0,1785362235.156
1785362251.401,2,491,1385,-16970,-1246,-671,53,-2144,11,11,11,0,100,2056,2034,130,62465,7,-50,0,,0,A,empty,,0,0,0,1785362235.156
1785362251.426,6,5682,13644,7244,-323,-327,-65,-864,22,15,13,0,100,1995,1979,41,19806,7,-64,0,,0,A,empty,,0,0,0,1785362235.156
1785362251.451,1,5701,14958,106,104,193,-90,-2240,12,12,10,0,100,2162,2128,142,3008,7,-58,0,,0,A,empty,,0,0,0,1785362235.156
1785362251.522,7,1268,271,-16409,243,-159,157,-2016,12,11,12,0,100,2028,2019,19,9491,7,-61,0,,0,A,empty,,0,0,0,1785362235.156
1785362251.522,4,1626,-14,-16277,324,21,230,-1840,11,11,10,0,100,2122,2099,44,21515,7,-64,0,,0,A,empty,,0,0,0,1785362235.156
1785362251.522,3,1888,-62,-17927,-190,208,121,-928,12,14,11,0,100,2032,2013,46,22409,7,-50,0,,0,A,empty,,0,0,0,1785362235.156
1785362251.522,2,491,1384,-16973,-1247,-671,54,-2128,11,11,11,0,100,2056,2034,130,62466,7,-51,0,,0,A,empty,,0,0,0,1785362235.156
1785362251.545,6,5681,13642,7240,-324,-326,-64,-864,23,15,13,0,100,1993,1979,41,19807,7,-64,0,,0,A,empty,,0,0,0,1785362235.156
1785362251.570,1,5699,14962,104,104,193,-90,-2256,12,12,11,0,100,2162,2128,142,3009,7,-58,0,,0,A,empty,,0,0,0,1785362235.156
1785362251.641,7,1267,267,-16414,244,-159,157,-2032,12,12,12,0,100,2028,2019,19,9492,7,-61,0,,0,A,empty,,0,0,0,1785362235.156
1785362251.641,4,1620,-16,-16280,324,23,230,-1872,11,10,10,0,100,2122,2099,44,21516,7,-63,0,,0,A,empty,,0,0,0,1785362235.156
1785362251.641,3,1882,-61,-17926,-189,209,121,-880,12,13,11,0,100,2032,2013,46,22410,7,-49,0,,0,A,empty,,0,0,0,1785362235.156
1785362251.666,2,492,1383,-16973,-1248,-670,55,-2128,10,11,11,0,100,2056,2034,130,62467,7,-51,0,,0,A,empty,,0,0,0,1785362235.156
1785362251.666,5,1825,-788,-15664,76,-12,-123,-1328,10,10,10,0,100,2328,2303,43,20647,7,-70,0,,0,A,empty,,0,0,0,1785362235.156
1785362251.666,6,5683,13642,7240,-324,-326,-63,-880,24,15,13,0,100,1994,1979,41,19808,7,-64,0,,0,A,empty,,0,0,0,1785362235.156
1785362251.691,1,5697,14959,98,104,193,-90,-2256,12,13,10,0,100,2162,2128,142,3010,7,-57,0,,0,A,empty,,0,0,0,1785362235.156
1785362251.762,7,1265,269,-16423,244,-159,158,-2000,12,11,11,0,100,2028,2019,19,9493,7,-61,0,,0,A,empty,,0,0,0,1785362235.156
1785362251.762,4,1618,-20,-16280,323,23,231,-1824,11,10,11,0,100,2122,2099,44,21517,7,-63,0,,0,A,empty,,0,0,0,1785362235.156
1785362251.785,2,495,1382,-16968,-1248,-670,55,-2128,10,11,11,0,100,2055,2034,130,62468,7,-51,0,,0,A,empty,,0,0,0,1785362235.156
1785362251.785,5,1822,-790,-15660,77,-12,-124,-1360,10,11,10,0,100,2327,2303,43,20648,7,-70,0,,0,A,empty,,0,0,0,1785362235.156
1785362251.810,6,5687,13637,7245,-325,-326,-62,-880,24,14,14,0,100,1994,1979,41,19809,7,-65,0,,0,A,empty,,0,0,0,1785362235.156
1785362251.884,7,1268,263,-16424,244,-160,159,-1984,13,11,11,0,100,2028,2019,19,9494,7,-61,0,,0,A,empty,,0,0,0,1785362235.156
1785362251.884,4,1614,-20,-16279,324,23,231,-1824,11,11,11,0,100,2122,2099,44,21518,7,-62,0,,0,A,empty,,0,0,0,1785362235.156
1785362251.904,2,492,1384,-16970,-1249,-671,54,-2128,10,11,11,0,100,2055,2034,130,62469,7,-50,0,,0,A,empty,,0,0,0,1785362235.156
1785362251.927,6,5684,13642,7241,-323,-327,-62,-880,24,14,13,0,100,1994,1979,41,19810,7,-66,0,,0,A,empty,,0,0,0,1785362235.156
1785362251.952,1,5701,14955,96,104,193,-89,-2256,11,13,10,0,100,2162,2128,142,3012,7,-56,0,,0,A,empty,,0,0,0,1785362235.156
1785362252.025,7,1271,266,-16424,244,-159,158,-2000,13,12,13,0,100,2028,2019,19,9495,7,-57,0,,0,A,empty,,0,0,0,1785362235.156
1785362252.025,4,1613,-19,-16276,325,22,231,-1872,10,10,11,0,100,2121,2099,44,21519,7,-62,0,,0,A,empty,,0,0,0,1785362235.156
1785362252.025,3,1876,-59,-17921,-189,209,120,-944,12,15,10,0,100,2031,2013,46,22413,7,-50,0,,0,A,empty,,0,0,0,1785362235.156
1785362252.025,2,488,1383,-16974,-1249,-671,54,-2144,9,11,11,0,100,2055,2034,130,62470,7,-51,0,,0,A,empty,,0,0,0,1785362235.156
1785362252.025,5,1819,-789,-15656,78,-11,-125,-1328,10,12,11,0,100,2327,2303,43,20650,7,-71,0,,0,A,empty,,0,0,0,1785362235.156
1785362252.050,6,5683,13641,7242,-323,-326,-61,-896,23,15,13,0,100,1994,1979,41,19811,7,-65,0,,0,A,empty,,0,0,0,1785362235.156
1785362252.075,1,5700,14959,90,104,193,-88,-2272,10,13,10,0,100,2162,2128,142,3013,7,-57,0,,0,A,empty,,0,0,0,1785362235.156
1785362252.150,4,1616,-16,-16280,325,22,231,-1856,9,11,10,0,100,2122,2099,44,21520,7,-62,0,,0,A,empty,,0,0,0,1785362235.156
1785362252.150,3,1877,-57,-17922,-189,209,119,-912,12,14,10,0,100,2032,2013,46,22414,7,-50,0,,0,A,empty,,0,0,0,1785362235.156
1785362252.150,2,487,1382,-16973,-1250,-670,54,-2128,9,10,11,0,100,2056,2034,130,62471,7,-51,0,,0,A,empty,,0,0,0,1785362235.156
1785362252.174,5,1817,-787,-15656,77,-11,-124,-1312,10,12,11,0,100,2326,2303,43,20651,7,-70,0,,0,A,empty,,0,0,0,1785362235.156
1785362252.174,6,5686,13643,7232,-323,-326,-61,-864,25,14,14,0,100,1994,1979,41,19812,7,-64,0,,0,A,empty,,0,0,0,1785362235.156
1785362252.196,1,5698,14962,94,104,193,-89,-2256,10,13,10,0,100,2162,2128,142,3014,7,-57,0,,0,A,empty,,0,0,0,1785362235.156
1785362252.268,7,1270,262,-16417,244,-158,158,-2016,13,12,13,0,100,2028,2019,19,9497,7,-61,0,,0,A,empty,,0,0,0,1785362235.156
1785362252.268,4,1618,-16,-16275,326,22,231,-1840,9,11,10,0,100,2122,2099,44,21521,7,-63,0,,0,A,empty,,0,0,0,1785362235.156
1785362252.269,3,1874,-58,-17927,-189,208,120,-912,12,14,10,0,100,2031,2013,46,22415,7,-50,0,,0,A,empty,,0,0,0,1785362235.156
1785362252.269,2,489,1384,-16976,-1249,-670,54,-2144,9,10,12,0,100,2055,2034,130,62472,7,-51,0,,0,A,empty,,0,0,0,1785362235.156
1785362252.293,5,1817,-786,-15656,76,-12,-124,-1312,10,12,11,0,100,2329,2303,43,20652,7,-70,0,,0,A,empty,,0,0,0,1785362235.156
1785362252.293,6,5683,13641,7230,-323,-326,-59,-880,26,14,14,0,100,1994,1979,41,19813,7,-64,0,,0,A,empty,,0,0,0,1785362235.156
1785362252.319,1,5701,14958,93,105,195,-89,-2208,10,13,10,0,100,2161,2128,142,3015,7,-57,0,,0,A,empty,,0,0,0,1785362235.156
1785362252.390,7,1270,263,-16416,245,-159,157,-2032,13,12,14,0,100,2028,2019,19,9498,7,-61,0,,0,A,empty,,0,0,0,1785362235.156
1785362252.390,4,1616,-17,-16271,325,22,232,-1824,9,11,11,0,100,2122,2099,44,21522,7,-63,0,,0,A,empty,,0,0,0,1785362235.156
1785362252.390,3,1876,-56,-17926,-189,207,120,-960,13,14,10,0,100,2031,2013,46,22416,7,-50,0,,0,A,empty,,0,0,0,1785362235.156
1785362252.415,2,488,1385,-16975,-1249,-670,55,-2176,9,11,12,0,100,2056,2034,130,62473,7,-51,0,,0,A,empty,,0,0,0,1785362235.156
1785362252.415,5,1815,-787,-15659,76,-12,-124,-1328,10,12,11,0,100,2330,2303,43,20653,7,-70,0,,0,A,empty,,0,0,0,1785362235.156
1785362252.415,6,5682,13645,7231,-323,-325,-60,-896,27,14,14,0,100,1994,1979,41,19814,7,-64,0,,0,A,empty,,0,0,0,1785362235.156
1785362252.441,1,5702,14955,94,104,195,-89,-2272,10,13,10,0,100,2162,2128,142,3016,7,-56,0,,0,A,empty,,0,0,0,1785362235.156
1785362252.512,7,1272,260,-16413,245,-158,158,-2032,12,13,14,0,100,2028,2019,19,9499,7,-61,0,,0,A,empty,,0,0,0,1785362235.156
1785362252.512,4,1617,-19,-16272,324,22,232,-1808,9,11,10,0,100,2122,2099,44,21523,7,-62,0,,0,A,empty,,0,0,0,1785362235.156
1785362252.537,2,491,1388,-16967,-1249,-669,55,-2112,10,11,11,0,100,2056,2034,130,62474,7,-51,0,,0,A,empty,,0,0,0,1785362235.156
1785362252.537,5,1813,-786,-15659,76,-11,-124,-1296,11,12,11,0,100,2325,2303,43,20654,7,-71,0,,0,A,empty,,0,0,0,1785362235.156
1785362252.537,6,5684,13643,7231,-323,-326,-60,-880,26,14,14,0,100,1994,1979,41,19815,7,-63,0,,0,A,empty,,0,0,0,1785362235.156
1785362252.562,1,5699,14952,97,105,195,-89,-2256,9,13,10,0,100,2162,2128,142,3017,7,-58,0,,0,A,empty,,0,0,0,1785362235.156
1785362252.635,7,1272,267,-16414,245,-158,158,-2016,12,12,14,0,100,2028,2019,19,9500,7,-61,0,,0,A,empty,,0,0,0,1785362235.156
1785362252.635,4,1618,-18,-16275,324,22,233,-1856,10,11,10,0,100,2121,2099,44,21524,7,-62,0,,0,A,empty,,0,0,0,1785362235.156
1785362252.635,3,1882,-56,-17924,-189,206,119,-928,12,15,11,0,100,2030,2013,46,22418,7,-50,0,,0,A,empty,,0,0,0,1785362235.156
1785362252.659,2,490,1388,-16962,-1249,-670,54,-2112,9,10,12,0,100,2056,2034,130,62475,7,-51,0,,0,A,empty,,0,0,0,1785362235.156
1785362252.659,5,1812,-783,-15660,76,-11,-123,-1344,11,13,11,0,100,2331,2303,43,20655,7,-70,0,,0,A,empty,,0,0,0,1785362235.156
1785362252.659,6,5685,13642,7229,-322,-325,-59,-848,25,14,14,0,100,1995,1979,41,19816,7,-63,0,,0,A,empty,,0,0,0,1785362235.156
1785362252.684,1,5697,14949,100,105,196,-89,-2240,10,13,10,0,100,2162,2128,142,3018,7,-56,0,,0,A,empty,,0,0,0,1785362235.156
1785362252.759,7,1277,268,-16410,244,-158,157,-2064,12,13,14,0,100,2028,2019,19,9501,7,-61,0,,0,A,empty,,0,0,0,1785362235.156
1785362252.785,3,1884,-58,-17931,-189,206,119,-928,13,15,10,0,100,2031,2013,46,22419,7,-50,0,,0,A,empty,,0,0,0,1785362235.156
1785362252.785,2,489,1387,-16960,-1250,-669,54,-2128,9,10,12,0,100,2056,2034,130,62476,7,-50,0,,0,A,empty,,0,0,0,1785362235.156
1785362252.785,5,1813,-782,-15662,75,-12,-124,-1312,11,11,12,0,100,2327,2303,43,20656,7,-70,0,,0,A,empty,,0,0,0,1785362235.156
1785362252.810,6,5682,13647,7226,-323,-324,-61,-880,25,14,14,0,100,1993,1979,41,19817,7,-64,0,,0,A,empty,,0,0,0,1785362235.156
1785362252.877,7,1276,272,-16404,246,-158,156,-2032,11,14,14,0,100,2028,2019,19,9502,7,-61,0,,0,A,empty,,0,0,0,1785362235.156
1785362252.901,4,1623,-19,-16278,324,23,233,-1872,10,11,9,0,100,2122,2099,44,21526,7,-64,0,,0,A,empty,,0,0,0,1785362235.156
1785362252.901,3,1883,-58,-17937,-189,207,119,-928,13,15,10,0,100,2032,2013,46,22420,7,-50,0,,0,A,empty,,0,0,0,1785362235.156
1785362252.901,2,492,1388,-16963,-1249,-669,55,-2128,9,10,12,0,100,2056,2034,130,62477,7,-50,0,,0,A,empty,,0,0,0,1785362235.156
1785362252.922,6,5684,13640,7220,-325,-324,-62,-864,28,14,15,0,100,1994,1979,41,19818,7,-64,0,,0,A,empty,,0,0,0,1785362235.156
1785362252.948,1,5698,14954,103,106,196,-90,-2240,9,14,10,0,100,2163,2128,142,3020,7,-52,0,,0,A,empty,,0,0,0,1785362235.156
1785362253.015,7,1279,269,-16403,245,-158,156,-2016,12,13,13,0,100,2027,2019,19,9503,7,-61,0,,0,A,empty,,0,0,0,1785362235.156
1785362253.015,4,1626,-14,-16282,324,23,234,-1856,10,11,10,0,100,2122,2099,44,21527,7,-65,0,,0,A,empty,,0,0,0,1785362235.156
1785362253.015,3,1887,-57,-17938,-190,207,119,-896,13,15,10,0,100,2032,2013,46,22421,7,-49,0,,0,A,empty,,0,0,0,1785362235.156
1785362253.040,2,495,1392,-16964,-1249,-669,55,-2112,9,10,12,0,100,2055,2034,130,62478,7,-51,0,,0,A,empty,,0,0,0,1785362235.156
1785362253.040,5,1815,-791,-15669,75,-12,-123,-1328,12,10,12,0,100,2329,2303,43,20658,7,-66,0,,0,A,empty,,0,0,0,1785362235.156
1785362253.040,6,5679,13640,7220,-325,-326,-61,-880,32,14,16,0,100,1995,1979,41,19819,7,-65,0,,0,A,empty,,0,0,0,1785362235.156
1785362253.135,7,1278,274,-16405,244,-158,157,-2064,13,13,13,0,100,2028,2019,19,9504,7,-61,0,,0,A,empty,,0,0,0,1785362235.156
1785362253.135,4,1624,-15,-16282,324,23,234,-1856,11,11,10,0,100,2122,2099,44,21528,7,-64,0,,0,A,empty,,0,0,0,1785362235.156
1785362253.136,3,1882,-58,-17931,-191,208,119,-928,13,16,11,0,100,2032,2013,46,22422,7,-50,0,,0,A,empty,,0,0,0,1785362235.156
1785362253.159,2,495,1388,-16959,-1249,-669,55,-2128,10,10,12,0,100,2055,2034,130,62479,7,-49,0,,0,A,empty,,0,0,0,1785362235.156
1785362253.159,5,1816,-787,-15668,75,-12,-124,-1328,11,10,12,0,100,2327,2303,43,20659,7,-66,0,,0,A,empty,,0,0,0,1785362235.156
1785362253.159,6,5678,13639,7222,-326,-326,-62,-864,31,14,15,0,100,1995,1979,41,19820,7,-63,0,,0,A,empty,,0,0,0,1785362235.156
1785362253.184,1,5698,14954,116,106,195,-90,-2256,10,13,10,0,100,2161,2128,142,3022,7,-58,0,,0,A,empty,,0,0,0,1785362235.156
1785362253.277,4,1622,-13,-16284,323,23,234,-1872,11,11,10,0,100,2122,2099,44,21529,7,-62,0,,0,A,empty,,0,0,0,1785362235.156
1785362253.277,3,1884,-58,-17932,-191,209,120,-928,13,16,11,0,100,2031,2013,46,22423,7,-50,0,,0,A,empty,,0,0,0,1785362235.156
1785362253.277,2,494,1385,-16962,-1250,-669,54,-2144,10,11,11,0,100,2055,2034,130,62480,7,-50,0,,0,A,empty,,0,0,0,1785362235.156
1785362253.277,5,1812,-786,-15664,75,-11,-124,-1312,12,10,12,0,100,2331,2303,43,20660,7,-65,0,,0,A,empty,,0,0,0,1785362235.156
1785362253.302,6,5683,13641,7215,-326,-327,-63,-832,28,14,15,0,100,1993,1979,41,19821,7,-62,0,,0,A,empty,,0,0,0,1785362235.156
1785362253.327,1,5696,14954,119,105,194,-90,-2272,10,13,10,0,100,2162,2128,142,3023,7,-58,0,,0,A,empty,,0,0,0,1785362235.156
1785362253.376,7,1276,269,-16408,244,-158,158,-2016,13,14,12,0,100,2028,2019,19,9506,7,-61,0,,0,A,empty,,0,0,0,1785362235.156
1785362253.402,4,1624,-12,-16289,324,23,234,-1824,11,12,10,0,100,2122,2099,44,21530,7,-62,0,,0,A,empty,,0,0,0,1785362235.156
1785362253.402,3,1882,-59,-17934,-191,209,119,-928,13,17,12,0,100,2032,2013,46,22424,7,-50,0,,0,A,empty,,0,0,0,1785362235.156
1785362253.402,2,494,1384,-16957,-1250,-670,55,-2144,10,11,11,0,100,2055,2034,130,62481,7,-50,0,,0,A,empty,,0,0,0,1785362235.156
1785362253.424,6,5684,13639,7212,-325,-328,-64,-880,28,13,15,0,100,1993,1979,41,19822,7,-62,0,,0,A,empty,,0,0,0,1785362235.156
1785362253.444,1,5696,14954,118,106,195,-89,-2256,10,13,10,0,100,2164,2128,142,3024,7,-58,0,,0,A,empty,,0,0,0,1785362235.156
1785362253.518,7,1269,273,-16403,244,-158,158,-2032,13,13,13,0,100,2028,2019,19,9507,7,-61,0,,0,A,empty,,0,0,0,1785362235.156
1785362253.518,4,1622,-11,-16283,324,23,233,-1856,12,12,10,0,100,2122,2099,44,21531,7,-62,0,,0,A,empty,,0,0,0,1785362235.156
1785362253.518,3,1879,-66,-17933,-192,209,120,-928,13,17,12,0,100,2031,2013,46,22425,7,-50,0,,0,A,empty,,0,0,0,1785362235.156
1785362253.518,2,490,1379,-16961,-1250,-670,54,-2128,9,11,11,0,100,2055,2034,130,62482,7,-50,0,,0,A,empty,,0,0,0,1785362235.156
1785362253.539,5,1815,-791,-15664,76,-12,-124,-1328,11,9,11,0,100,2328,2303,43,20662,7,-64,0,,0,A,empty,,0,0,0,1785362235.156
1785362253.539,6,5684,13643,7220,-326,-327,-65,-912,30,14,15,0,100,1995,1979,41,19823,7,-63,0,,0,A,empty,,0,0,0,1785362235.156
1785362253.561,1,5701,14956,118,105,196,-89,-2256,10,13,10,0,100,2161,2128,142,3025,7,-58,0,,0,A,empty,,0,0,0,1785362235.156
1785362253.633,7,1270,270,-16401,243,-159,158,-2000,13,13,13,0,100,2028,2019,19,9508,7,-61,0,,0,A,empty,,0,0,0,1785362235.156
1785362253.633,4,1623,-12,-16276,324,22,232,-1840,11,11,11,0,100,2122,2099,44,21532,7,-62,0,,0,A,empty,,0,0,0,1785362235.156
1785362253.657,2,489,1380,-16966,-1249,-669,55,-2128,10,11,11,0,100,2056,2034,130,62483,7,-50,0,,0,A,empty,,0,0,0,1785362235.156
1785362253.657,5,1815,-790,-15664,76,-12,-124,-1344,11,9,11,0,100,2326,2303,43,20663,7,-65,0,,0,A,empty,,0,0,0,1785362235.156
1785362253.682,1,5704,14960,116,105,195,-89,-2272,11,13,10,0,100,2161,2128,142,3026,7,-58,0,,0,A,empty,,0,0,0,1785362235.156
1785362253.776,7,1271,268,-16400,245,-158,158,-2016,13,13,12,0,100,2028,2019,19,9509,7,-61,0,,0,A,empty,,0,0,0,1785362235.156
1785362253.776,4,1621,-15,-16273,324,22,233,-1856,12,11,11,0,100,2122,2099,44,21533,7,-63,0,,0,A,empty,,0,0,0,1785362235.156
1785362253.776,3,1881,-66,-17923,-191,209,120,-928,14,17,12,0,100,2032,2013,46,22427,7,-50,0,,0,A,empty,,0,0,0,1785362235.156
1785362253.776,2,489,1380,-16967,-1249,-669,54,-2144,9,10,11,0,100,2056,2034,130,62484,7,-49,0,,0,A,empty,,0,0,0,1785362235.156
